"Time (s)","Linear Acceleration x (m/s^2)","Linear Acceleration y (m/s^2)","Linear Acceleration z (m/s^2)","Absolute acceleration (m/s^2)"
1.006427900E-2,2.402222157E-2,5.811548233E-2,1.663389206E-1,1.778288866E-1
1.809027800E-2,2.472925186E-2,-1.137399673E-2,2.500057220E-1,2.514831302E-1
2.611627700E-2,-7.903897762E-2,-4.221606255E-2,1.520404816E-1,1.764813417E-1
3.414227600E-2,-1.556426287E-1,-3.501582146E-2,2.001066208E-1,2.559167742E-1
4.219879200E-2,-1.081999540E-1,-6.264448166E-3,1.476764679E-1,1.831797274E-1
5.022479100E-2,-5.686140060E-2,3.763508797E-2,2.886676788E-2,7.404666780E-2
5.825079100E-2,-4.680240154E-2,4.775667191E-2,-5.147361755E-2,8.438422723E-2
6.627679000E-2,-1.765716076E-2,2.562546730E-2,-5.082607269E-2,5.959638887E-2
7.430278900E-2,8.920192719E-3,3.280138969E-2,-2.880191803E-2,4.455391662E-2
8.235930400E-2,7.408714294E-2,4.230284691E-2,-3.551864624E-2,9.241217364E-2
9.038530300E-2,9.579110146E-2,2.115130424E-2,-1.122188568E-2,9.873825757E-2
9.841130200E-2,5.135953426E-2,3.847002983E-2,-4.216003418E-2,7.678029329E-2
1.064373010E-1,6.268417835E-2,1.009726524E-2,-3.001594543E-2,7.022975126E-2
1.144633000E-1,5.298995972E-2,1.053142548E-2,-1.078033447E-2,5.509140010E-2
1.225198170E-1,-3.399336338E-2,-2.024173737E-4,-2.764320374E-2,4.381479704E-2
1.305458160E-1,-1.001675129E-1,-2.987480164E-2,-5.166816711E-2,1.166003169E-1
1.385718150E-1,-9.318137169E-2,-5.412840843E-2,-1.476011276E-1,1.827532366E-1
1.465978140E-1,-8.695125580E-4,-5.570626259E-2,-2.078952789E-1,2.152310172E-1
1.546238130E-1,2.900934219E-2,-2.731323242E-2,-1.369066238E-1,1.425867394E-1
1.626498120E-1,1.116979122E-2,1.843523979E-2,-1.475419998E-1,1.491082292E-1
1.707063290E-1,4.415106773E-2,-1.213812828E-2,-2.325601578E-1,2.370250576E-1
1.787323280E-1,5.658495426E-2,-1.818060875E-2,-1.957941055E-1,2.046160388E-1
1.867583270E-1,-1.622724533E-2,3.180456161E-2,-2.432603836E-1,2.458667685E-1
1.947843260E-1,-3.718984127E-2,1.238727570E-2,-2.717704773E-1,2.745828130E-1
2.028103250E-1,-5.611181259E-4,-1.287961006E-2,-2.743997574E-1,2.747024318E-1
2.108363240E-1,1.457226276E-1,-1.063179970E-2,-1.911678314E-1,2.406101809E-1
2.188623230E-1,3.029804230E-1,3.041672707E-2,4.556655884E-3,3.045374806E-1
2.269188390E-1,2.395597696E-1,1.618695259E-2,1.142168045E-1,2.658879070E-1
2.349448380E-1,2.024536133E-1,-1.308679581E-2,8.524894714E-2,2.200593391E-1
2.429708370E-1,2.197571993E-1,-2.858400345E-2,7.810878754E-2,2.349707526E-1
2.509968360E-1,2.510738373E-1,-4.674220085E-2,1.860246658E-1,3.159558219E-1
2.590228350E-1,3.138397932E-1,6.650924683E-2,2.607593536E-1,4.134178712E-1
2.670793520E-1,4.478720427E-1,1.519987583E-1,2.812490463E-1,5.502672216E-1
2.751053510E-1,8.598097563E-1,4.872000217E-1,9.756088257E-1,1.388686163E0
2.831313500E-1,9.552713633E-1,1.066994667E-1,5.558509827E-1,1.110359612E0
2.911573490E-1,7.209793329E-1,3.069734573E-1,2.291316986E-1,8.164222176E-1
2.991833480E-1,4.739422798E-1,3.257915974E-1,-4.586658478E-1,7.356193373E-1
3.072398640E-1,5.604009628E-1,3.554537296E-1,-4.994297028E-1,8.305580179E-1
3.152658630E-1,6.764140129E-1,3.149130344E-1,-4.655189514E-1,8.794396115E-1
3.232918630E-1,7.627310753E-1,2.432203293E-1,-7.312612534E-1,1.084277567E0
3.313178620E-1,7.452740669E-1,2.381577492E-1,-1.110213280E0,1.358206934E0
3.393438610E-1,5.845122337E-1,2.347774506E-1,-1.273143291E0,1.420446706E0
3.473698600E-1,4.055550098E-1,2.760903835E-1,-1.476232529E0,1.555623105E0
3.554263750E-1,7.736462355E-1,-2.899172306E-1,-1.576309681E0,1.779700174E0
3.634523740E-1,9.507540464E-1,-7.317974567E-1,-1.513731480E0,1.931539222E0
3.714783730E-1,6.669950485E-2,1.812720299E-1,-9.846801758E-1,1.003445774E0
3.795043720E-1,-2.258082032E-1,8.458127975E-1,-2.130956650E-1,9.009985547E-1
3.875303710E-1,-7.310748100E-2,1.086488247E0,3.083114624E-1,1.131749695E0
3.955563720E-1,6.471995115E-1,2.065272331E-1,2.636508942E-1,7.287197676E-1
4.036128870E-1,8.674362898E-1,-4.351539612E-1,2.915554047E-1,1.013315963E0
4.116388860E-1,7.558956146E-1,-6.108763218E-1,2.816896439E-1,1.011878014E0
4.196648850E-1,6.041976213E-1,-5.346238613E-1,2.345924377E-1,8.401851287E-1
4.276908840E-1,4.648683071E-1,-5.048618317E-1,2.538719177E-1,7.317369491E-1
4.357168830E-1,3.457801342E-1,-3.877727985E-1,3.050222397E-1,6.024700915E-1
4.437428820E-1,-3.175119162E-1,-7.633507252E-1,2.704410553E-1,8.698600525E-1
4.517993990E-1,-3.122428656E-1,-1.947157383E-1,4.041976929E-1,5.466128436E-1
4.598253980E-1,-2.964069843E-1,1.452028751E-1,5.585784912E-1,6.488072951E-1
4.678513970E-1,-4.169485569E-1,-6.025791168E-3,3.865747452E-1,5.686144941E-1
4.758773960E-1,-2.418529987E-2,-2.413775921E-1,1.585178375E-1,2.897860858E-1
4.839033950E-1,1.436251402E-1,-1.849384308E-1,5.584812164E-2,2.407268509E-1
4.919599110E-1,1.776943207E-1,-1.782233715E-1,-1.529598236E-2,2.521364885E-1
4.999859100E-1,2.358568907E-1,-3.315536976E-1,-1.293182373E-1,4.269420731E-1
5.080119090E-1,2.197955847E-1,-2.457575798E-1,-1.450452805E-1,3.602013610E-1
5.160379080E-1,2.841590643E-1,-2.256293297E-1,-1.962738037E-1,4.125268164E-1
5.240639080E-1,3.770118952E-1,-1.753063202E-1,-3.307247162E-1,5.312712235E-1
5.321204240E-1,5.425456762E-1,-1.110522747E-1,-4.406137466E-1,7.076926538E-1
5.401464230E-1,7.197321653E-1,-1.609776020E-1,-5.571727753E-1,9.243211994E-1
5.481724220E-1,6.058721542E-1,-3.167816401E-1,-4.530382156E-1,8.201678484E-1
5.561984210E-1,6.405891180E-1,-2.412198782E-1,-5.708761215E-1,8.913141948E-1
5.642244200E-1,7.456371784E-1,-2.822312117E-1,-6.091623306E-1,1.003348396E0
5.722504190E-1,6.772134304E-1,-3.204975128E-1,-5.540904999E-1,9.318545853E-1
5.803069360E-1,7.434735298E-1,-4.568248987E-1,-5.515718460E-1,1.032314574E0
5.883329350E-1,6.867580414E-1,-4.664620161E-1,-4.699954987E-1,9.540016712E-1
5.963589340E-1,7.409368753E-1,-4.523152113E-1,-3.903331757E-1,9.518069613E-1
6.043849330E-1,7.432208061E-1,-4.922116995E-1,-2.764024734E-1,9.332994434E-1
6.124109320E-1,9.775253534E-1,-6.339126825E-1,-3.785896301E-1,1.225043352E0
6.204369310E-1,1.101053357E0,-5.400110483E-1,-3.762989044E-1,1.282782637E0
6.284934460E-1,1.142851472E0,-6.377191544E-1,-6.352558136E-1,1.454766358E0
6.365194450E-1,1.116808176E0,-6.074218750E-1,-7.604246140E-1,1.481373494E0
6.445454440E-1,1.095760345E0,-3.674665689E-1,-7.716236115E-1,1.389649384E0
6.525714450E-1,1.107877493E0,-4.362335205E-1,-8.298358917E-1,1.451316585E0
6.605974440E-1,8.059402704E-1,-5.776537657E-1,-8.376131058E-1,1.298005897E0
6.686234430E-1,2.728695869E-1,-5.770337582E-1,-6.614446640E-1,9.192033578E-1
6.766799580E-1,-4.138664007E-1,-3.034201860E-1,-3.037099838E-1,5.963128048E-1
6.847059570E-1,-6.117246151E-1,-2.029463053E-1,-1.746664047E-1,6.677593582E-1
6.927319560E-1,-4.225950241E-1,-2.242197990E-1,-2.884778976E-1,5.586417189E-1
7.007579550E-1,-8.796000481E-2,-2.901560068E-1,-5.679721832E-1,6.438321766E-1
7.087839540E-1,3.694403172E-1,-4.381331205E-1,-5.787954330E-1,8.145249736E-1
7.168099530E-1,6.036128998E-1,-4.722722769E-1,-4.011392593E-1,8.650447050E-1
7.248664700E-1,7.857913971E-1,-5.553857088E-1,-2.022762299E-1,9.832787389E-1
7.328924690E-1,7.203016281E-1,-7.948538065E-1,2.424421310E-1,1.099729601E0
7.409184680E-1,1.703965664E-1,-1.065757275E0,6.250629425E-1,1.247227822E0
7.489444670E-1,-3.114883900E-1,-1.067819953E0,9.423093796E-1,1.457810494E0
7.569704660E-1,-5.524053574E-1,-9.439933300E-1,1.133183479E0,1.574922183E0
7.649964650E-1,-5.097038746E-1,-8.319045901E-1,1.194389343E0,1.542215676E0
7.730529820E-1,-1.761648655E-1,-8.513289690E-1,1.082180023E0,1.388131361E0
7.810789810E-1,2.866635323E-1,-8.383448124E-1,7.972211838E-1,1.191872317E0
7.891049800E-1,6.245574951E-1,-9.426493049E-1,6.133165359E-1,1.286396887E0
7.971309790E-1,3.587636948E-1,-6.283851862E-1,9.202346802E-1,1.170645633E0
8.051569780E-1,-1.776096821E-1,-2.127679586E-1,1.165288925E0,1.197795343E0
8.131829770E-1,-1.046090364E0,-1.232422590E-1,1.125186920E0,1.541278466E0
8.212089760E-1,-1.764497638E0,-2.745449543E-2,1.097566605E0,2.078186256E0
8.292654920E-1,-2.136162996E0,2.219511271E-1,1.065318108E0,2.397364661E0
8.372914910E-1,-2.235789299E0,6.606311798E-1,9.750242233E-1,2.527025837E0
8.453174900E-1,-1.250246525E0,1.230279207E-1,6.195125580E-1,1.400731256E0
8.533434890E-1,1.415562630E-1,-9.439871311E-1,1.225748062E-1,9.623795833E-1
8.613694880E-1,8.904824257E-1,-1.560294747E0,-2.031068802E-1,1.807963234E0
8.693954870E-1,1.157857895E0,-1.728757262E0,-3.743410110E-1,2.114087928E0
8.774214860E-1,7.344074249E-1,-1.306953669E0,-1.478204727E-1,1.506430566E0
8.854780030E-1,1.042637825E-1,-9.525303245E-1,3.049945831E-2,9.587049454E-1
8.935040020E-1,-7.702417374E-1,-4.718832970E-1,9.358692169E-2,9.081325299E-1
9.015300010E-1,-1.780258656E0,3.643609285E-1,1.835441589E-1,1.826408559E0
9.095560000E-1,-1.506640673E0,1.483007669E-1,-7.800769806E-2,1.515930221E0
9.175819990E-1,-6.130146980E-1,-5.057816505E-1,-8.013229370E-1,1.128592286E0
9.256385160E-1,-2.742004395E-2,-6.001719236E-1,-1.120724201E0,1.271605651E0
9.336645150E-1,3.445591927E-1,-4.709022045E-1,-1.216145992E0,1.348881388E0
9.416905140E-1,6.792583466E-1,-7.236093283E-1,-1.209850788E0,1.564845453E0
9.497165130E-1,4.780268669E-1,-3.815252781E-1,-8.963365555E-1,1.085122318E0
9.577425120E-1,3.756713867E-2,1.634807587E-1,-4.089279175E-1,4.419946720E-1
9.657990270E-1,-5.344400406E-1,3.992612362E-1,2.284526825E-2,6.675010097E-1
9.738250260E-1,-7.982292175E-1,3.403404951E-1,2.602486610E-1,9.059419970E-1
9.818510250E-1,-6.160492897E-1,1.607311964E-1,1.999034882E-1,6.673175027E-1
9.898770250E-1,-6.498913765E-1,2.382602692E-1,5.194473267E-2,6.941361627E-1
9.979030240E-1,-6.734085083E-1,2.057055235E-1,-4.295587540E-2,7.054353186E-1
1.005929023E0,-1.461624622E0,8.725063801E-1,1.578693390E-1,1.709542818E0
1.013985539E0,-8.304505348E-1,5.938303471E-2,-7.048416138E-2,8.355491922E-1
1.022011538E0,-7.326130867E-1,-4.133508205E-1,-3.316340446E-1,9.041913377E-1
1.030037537E0,-1.126878262E0,-3.028185368E-1,-4.142951965E-1,1.238222190E0
1.038063536E0,-1.458098888E0,-4.854869843E-2,-3.901772499E-1,1.510181324E0
1.046089535E0,-1.781740189E0,-2.208924294E-2,-3.162927628E-1,1.809731236E0
1.054115534E0,-2.033319950E0,-3.833882809E-1,-1.372141838E-1,2.073693402E0
1.062141534E0,-2.187991142E0,-6.214207411E-1,8.731222153E-2,2.276201309E0
1.070198050E0,-2.207976818E0,-6.807776690E-1,1.946401596E-2,2.310627342E0
1.078224049E0,-2.383333683E0,-6.824982762E-1,-6.327819824E-2,2.479936990E0
1.086250048E0,-2.693289757E0,-5.835863352E-1,-2.192468643E-1,2.764498492E0
1.094276047E0,-2.783257008E0,-7.974557877E-1,-4.995231628E-1,2.938022923E0
1.102302046E0,-2.736229420E0,-1.245363951E0,-6.058592796E-1,3.066748812E0
1.110328045E0,-2.816781044E0,-1.639517546E0,-5.068607330E-1,3.298360356E0
1.118384561E0,-2.942644119E0,-1.977474451E0,-4.252901077E-1,3.570774607E0
1.126410560E0,-3.009898186E0,-2.177923203E0,-3.559246063E-1,3.732227068E0
1.134436559E0,-2.661931992E0,-2.154205561E0,-5.407667160E-2,3.424822304E0
1.142462558E0,-2.596346855E0,-1.579980135E0,4.886946678E-1,3.078339926E0
1.150488557E0,-1.545596123E0,-2.213052273E0,6.603975296E-1,2.778955313E0
1.158514556E0,-9.217557907E-1,-2.943411827E0,7.181816101E-1,3.166874129E0
1.166571073E0,-9.185037613E-1,-2.800849915E0,8.709249496E-1,3.073584173E0
1.174597072E0,-1.041656971E0,-2.172745705E0,8.542528152E-1,2.556486068E0
1.182623071E0,-7.053575516E-1,-2.015276432E0,5.280499458E-1,2.199478374E0
1.190649070E0,-3.246145248E-1,-1.936292171E0,1.838459969E-1,1.971902968E0
1.198675069E0,-1.906709671E-1,-1.676819205E0,-8.610296249E-2,1.689820045E0
1.206731586E0,-5.926704407E-2,-1.526126146E0,-3.876888752E-1,1.575714524E0
1.214757585E0,3.209400177E-2,-1.324813962E0,-8.105952740E-1,1.553456390E0
1.222783584E0,2.266883850E-3,-9.821159840E-1,-1.104016781E0,1.477636626E0
1.230809583E0,-9.305000305E-2,-6.483123302E-1,-1.443571091E0,1.585201777E0
1.238835582E0,3.578767776E-1,-4.963343143E-1,-1.992801309E0,2.084629606E0
1.246861581E0,9.982309341E-1,-3.960437775E-1,-2.278253078E0,2.518680758E0
1.254918097E0,1.567074776E0,-7.513332367E-2,-2.270480156E0,2.759791388E0
1.262944096E0,2.215364456E0,3.145875931E-1,-2.184550285E0,3.127149657E0
1.270970095E0,2.731726646E0,6.460363865E-1,-2.290907383E0,3.623251319E0
1.278996094E0,3.042969704E0,1.080297470E0,-2.340125799E0,3.987843527E0
1.287022093E0,3.066434860E0,1.315071821E0,-2.425933123E0,4.125237952E0
1.295078609E0,2.974639893E0,8.515477180E-1,-2.717785358E0,4.118248810E0
1.303104608E0,2.263390541E0,8.994674683E-1,-2.648467064E0,3.598104537E0
1.311130607E0,1.669798851E0,1.004357338E0,-2.412011385E0,3.100767774E0
1.319156606E0,1.408861160E0,8.179955482E-1,-2.074840069E0,2.637985557E0
1.327182606E0,1.295587063E0,5.854930878E-1,-1.738549829E0,2.245863642E0
1.335208605E0,1.480500221E0,3.771448135E-1,-1.495024562E0,2.137572819E0
1.343234604E0,1.676368237E0,3.649945259E-1,-1.263061881E0,2.130435820E0
1.351291120E0,2.019114017E0,4.608674049E-1,-1.245013595E0,2.416460021E0
1.359317119E0,2.221306801E0,5.910143852E-1,-1.393296719E0,2.687894651E0
1.367343118E0,2.375109196E0,5.642571449E-1,-1.768452764E0,3.014457662E0
1.375369117E0,2.217529297E0,6.030488014E-1,-2.203797340E0,3.183995408E0
1.383395116E0,2.037882805E0,4.854712486E-1,-2.494632006E0,3.257581542E0
1.391451632E0,1.658867359E0,3.861360550E-1,-2.676755428E0,3.172689961E0
1.399477631E0,1.035186291E0,4.874401093E-1,-2.574548244E0,2.817358192E0
1.407503630E0,-2.893042564E-1,5.173039436E-1,-2.353669167E0,2.427150360E0
1.415529629E0,7.643699646E-3,6.710052490E-2,-1.970830679E0,1.971987442E0
1.423555628E0,4.295597076E-1,-2.553987503E-2,-1.207451105E0,1.281839303E0
1.431581628E0,6.838445663E-1,-5.184650421E-2,-7.590022087E-1,1.022944673E0
1.439607627E0,6.073598862E-1,-9.049797058E-2,-5.943775177E-1,8.546113430E-1
1.447664143E0,1.222372055E-1,-1.310362816E-1,-5.439257622E-1,5.726846220E-1
1.455690142E0,-2.923216820E-1,-5.375642776E-1,-3.392899036E-1,6.996748938E-1
1.463716141E0,-9.134182930E-1,-8.382415771E-1,-2.478601933E-1,1.264285013E0
1.471742140E0,-1.082224846E0,-1.476957798E0,7.843971252E-4,1.831014901E0
1.479768139E0,-8.980956078E-1,-1.806202412E0,2.358131409E-1,2.030898991E0
1.487794138E0,-5.375542641E-1,-1.901203632E0,4.767582417E-1,2.032446373E0
1.495850655E0,2.890253067E-1,-2.721489429E0,1.175695658E0,2.978640734E0
1.503876654E0,3.941512108E0,-5.735185623E0,4.819197655E0,8.464782210E0
1.511902653E0,5.202269554E-1,-1.361921787E0,4.091299057E0,4.343293107E0
1.519928652E0,-1.107439518E0,-9.977684021E-1,1.333223104E0,1.999861974E0
1.527954651E0,-1.835204124E0,-1.436189651E0,-1.405102968E0,2.721199964E0
1.535980650E0,-1.713149071E0,-1.087664604E0,-2.047228336E0,2.882540180E0
1.544037166E0,-4.130706787E-1,-1.358767509E0,-1.298592567E0,1.924375012E0
1.552063165E0,1.010951996E-1,-6.988229752E-1,8.328051567E-1,1.091850823E0
1.560089165E0,4.889502525E-1,-3.146872520E-1,2.418387890E0,2.487307862E0
1.568115164E0,8.805832863E-1,-3.731961250E-1,2.844779968E0,3.001245631E0
1.576141163E0,9.429912567E-1,-4.356598854E-1,2.615089417E0,2.813845181E0
1.584167162E0,7.832956314E-1,-6.086611748E-1,2.605233669E0,2.787698503E0
1.592223678E0,5.192985535E-1,-7.949376106E-1,2.893124342E0,3.044957348E0
1.600249677E0,7.646756172E-1,-8.074531555E-1,3.272085905E0,3.455901556E0
1.608275676E0,8.213934898E-1,-6.448874474E-1,3.185449362E0,3.352261136E0
1.616301675E0,6.257305145E-1,-3.407955170E-1,2.943806410E0,3.028807759E0
1.624327674E0,4.426498413E-1,-6.533193588E-2,2.786180973E0,2.821880855E0
1.632414707E0,2.235960960E-1,2.690825462E-1,2.718644619E0,2.741063515E0
1.640440706E0,-2.214155197E-1,7.506208420E-1,2.645026445E0,2.758372958E0
1.648466705E0,-9.216527939E-1,1.223555088E0,2.447736502E0,2.887549984E0
1.656523222E0,-1.014060974E0,1.599234104E0,1.993276358E0,2.749367203E0
1.664549221E0,-1.191582680E0,2.219524384E0,1.362701178E0,2.864107587E0
1.672575220E0,-1.095144272E0,2.857580185E0,4.947421551E-1,3.099979885E0
1.680601219E0,-6.659469604E-1,3.151828289E0,-5.988030434E-1,3.276594574E0
1.688627218E0,-6.964921951E-2,3.158453465E0,-2.194891930E0,3.846846746E0
1.696683734E0,-1.004757881E-1,3.063416004E0,-3.546625614E0,4.687554399E0
1.704709734E0,-2.127132416E-1,2.485375404E0,-4.273934364E0,4.948621300E0
1.712735733E0,-6.429462433E-1,2.469304562E0,-3.914734364E0,4.672899531E0
1.720761732E0,-7.883920670E-1,2.202438354E0,-3.247397900E0,4.002235610E0
1.728787731E0,-6.454715729E-1,1.729350090E0,-2.042529345E0,2.753036761E0
1.736813730E0,-1.146078110E-1,1.149487972E0,-5.251100063E-1,1.268935801E0
1.744870245E0,1.184163094E-1,7.454309464E-1,7.988929749E-1,1.099054004E0
1.752896244E0,5.747604370E-2,8.912043571E-1,1.681265593E0,1.903733882E0
1.760922243E0,1.309013367E-1,9.898486137E-1,1.795131445E0,2.054125688E0
1.768948242E0,3.487596512E-1,7.308392525E-1,1.518981218E0,1.721355062E0
1.777004759E0,6.408424377E-1,1.715469360E-1,8.593401909E-1,1.085620995E0
1.785030758E0,7.809400558E-2,3.782262802E-1,4.405500889E-1,5.858653203E-1
1.793056757E0,-5.680291653E-1,9.106464386E-1,5.377507210E-1,1.200462372E0
1.801082756E0,-5.591957569E-1,4.643707275E-1,1.421153545E-1,7.406327303E-1
1.809139273E0,-9.677617550E-1,-3.758049011E-2,-1.842325926E-1,9.858583853E-1
1.817165272E0,-1.671363115E0,-1.075531006E0,-4.732298851E-2,1.988079745E0
1.825191271E0,-2.082308292E0,-1.701171875E0,6.753373146E-1,2.772376970E0
1.833217270E0,-2.262464046E0,-2.080524445E0,1.444654107E0,3.396225996E0
1.841273786E0,-2.165850639E0,-2.143311501E0,1.654388189E0,3.467231383E0
1.849299785E0,-1.921505809E0,-1.886155128E0,1.285205364E0,2.983541280E0
1.857325784E0,-1.720876932E0,-1.761123657E0,1.445612669E0,2.855305577E0
1.865351783E0,-1.268228054E0,-1.757781982E0,1.145241022E0,2.451484630E0
1.873377782E0,-5.830326080E-1,-1.756235123E0,8.797720671E-1,2.048972357E0
1.881434298E0,-3.102955818E-1,-1.717627525E0,6.336627007E-1,1.856894203E0
1.889460297E0,5.948567390E-2,-1.546117783E0,1.099946380E0,1.898394264E0
1.897486297E0,2.782037258E-1,-1.243006706E0,1.357615232E0,1.861607398E0
1.905512296E0,4.129645824E-1,-1.212845802E0,7.614812255E-1,1.490432267E0
1.913538295E0,5.861153603E-1,-1.350870132E0,2.073895335E-1,1.487074897E0
1.921564294E0,8.077120781E-1,-1.400846481E0,3.734896779E-1,1.659597603E0
1.929590293E0,9.471590519E-1,-9.946804047E-1,3.764911294E-1,1.424164649E0
1.937646809E0,8.195929527E-1,-6.174058914E-1,-6.936171651E-2,1.028461808E0
1.945672808E0,-2.506979704E-1,3.148698807E-1,-7.847645283E-1,8.819568464E-1
1.953698807E0,-8.170580864E-1,1.672428131E0,-1.057719827E0,2.140880894E0
1.961724806E0,-8.491758108E-1,2.269480228E0,-5.668108463E-1,2.488556730E0
1.969750806E0,-1.229066253E0,2.535112858E0,-1.025554776E0,2.998193398E0
1.977776805E0,-9.696057439E-1,2.527142048E0,-1.180738926E0,2.953087645E0
1.985833320E0,-1.072161078E0,1.676450729E0,-1.113167644E0,2.280166360E0
1.993859319E0,-1.034705162E0,-1.760387421E-2,-6.608160138E-1,1.227844645E0
2.001885318E0,-9.713853598E-1,-1.167120934E0,-4.665121734E-1,1.588519562E0
2.009911317E0,-8.269187808E-1,-2.304120064E0,-8.094713688E-1,2.578373099E0
2.017937316E0,-9.242758751E-1,-2.782720566E0,-1.410911083E0,3.253995963E0
2.025963315E0,-1.227486134E0,-2.433110237E0,-1.325974464E0,3.030669219E0
2.033989314E0,-1.311438560E0,-1.704447746E0,-4.058081210E-1,2.188536828E0
2.042045831E0,-1.142498016E0,-1.345230103E0,2.732651532E-1,1.785950612E0
2.050071830E0,-9.703434706E-1,-1.436332703E0,9.920383096E-1,1.997187545E0
2.058097829E0,-5.719450116E-1,-1.879195213E0,1.671310902E0,2.579103696E0
2.066123828E0,-2.492445111E-1,-2.302959442E0,2.345883369E0,3.296803573E0
2.074149827E0,7.342648506E-2,-2.633695602E0,2.649647713E0,3.736626416E0
2.082175826E0,3.115779161E-1,-2.773285866E0,2.611105204E0,3.821788282E0
2.090232343E0,5.665496588E-1,-2.716920853E0,2.455140114E0,3.705448747E0
2.098258342E0,9.064768553E-1,-2.723144531E0,2.097168207E0,3.554621065E0
2.106284341E0,1.255331874E0,-2.868650436E0,1.739485383E0,3.582013796E0
2.114310340E0,1.645377159E0,-2.887919426E0,1.589794636E0,3.684398403E0
2.122336339E0,1.944484472E0,-2.711707115E0,1.336623311E0,3.594570519E0
2.130362338E0,2.343830347E0,-2.361601830E0,1.041602135E0,3.486493784E0
2.138418854E0,2.671365261E0,-1.938409805E0,7.015004754E-1,3.374274418E0
2.146444853E0,2.756975889E0,-1.313066483E0,3.368105590E-1,3.072214347E0
2.154470852E0,2.698613405E0,-6.437149048E-1,-1.223848760E-1,2.777023811E0
2.162496851E0,2.643463373E0,-3.061952591E-1,-6.065510511E-1,2.729387902E0
2.170522850E0,2.291988850E0,-9.445667267E-2,-1.211649656E0,2.594268652E0
2.178579367E0,1.825054646E0,5.167484283E-2,-1.502816319E0,2.364730775E0
2.186605366E0,1.042653441E0,1.898059845E-1,-1.475541353E0,1.816693369E0
2.194631365E0,-5.842596292E-3,7.100610733E-1,-1.885761738E0,2.015023125E0
2.202657364E0,-4.896288514E-1,1.038684845E0,-1.691120386E0,2.044135705E0
2.210683363E0,-7.274576426E-1,1.068041801E0,-1.523889780E0,1.998036029E0
2.218739879E0,-7.585533261E-1,8.493070602E-1,-1.362763166E0,1.775907959E0
2.226765879E0,-6.750853658E-1,5.259218216E-1,-1.410352945E0,1.649675557E0
2.234791878E0,-4.530062377E-1,1.940021515E-1,-1.333485365E0,1.421631002E0
2.242817877E0,-1.930082440E-1,-5.306625366E-2,-1.291042566E0,1.306468185E0
2.250843876E0,4.586744308E-2,-2.610282898E-1,-1.311196923E0,1.337713333E0
2.258869875E0,3.174397945E-1,-3.077182770E-1,-1.286677122E0,1.360513351E0
2.266926390E0,5.486431122E-1,-7.511634827E-1,-1.425466299E0,1.702119271E0
2.274952389E0,5.570754409E-1,-1.634290695E0,-1.145448446E0,2.072025885E0
2.282978388E0,7.841311693E-1,-1.867705345E0,-4.872664809E-1,2.083413922E0
2.291004387E0,1.141362667E0,-1.385419846E0,-2.865747213E-1,1.817751897E0
2.299030387E0,1.259477735E0,-6.017293930E-1,-1.091679335E-1,1.400100019E0
2.307056386E0,1.268353224E0,-8.177852631E-2,1.476848125E-2,1.271072671E0
2.315112902E0,1.256767750E0,1.620035172E-1,1.989674568E-2,1.267322452E0
2.323138901E0,1.299108028E0,1.542739868E-1,-1.350450516E-1,1.315187933E0
2.331164900E0,1.336906195E0,-3.340721130E-2,-3.478840590E-1,1.381831225E0
2.339190899E0,1.423876405E0,-3.052911758E-1,-6.023886204E-1,1.575912043E0
2.347216898E0,1.467374444E0,-5.892858505E-1,-8.660416603E-1,1.802907022E0
2.355242897E0,1.428099632E0,-8.563318253E-1,-1.189960241E0,2.046650466E0
2.363268896E0,1.418280840E0,-1.043789864E0,-1.419211864E0,2.261676400E0
2.371325413E0,1.386500239E0,-1.172992706E0,-1.684628963E0,2.477149480E0
2.379351412E0,1.407462120E0,-1.360706329E0,-1.719851732E0,2.605832173E0
2.387377411E0,1.521900058E0,-1.467941284E0,-1.466742277E0,2.573395482E0
2.395403410E0,1.659128666E0,-1.530702591E0,-1.088349581E0,2.506045323E0
2.403429409E0,1.852651596E0,-1.666790962E0,-7.952587605E-1,2.615902625E0
2.411455408E0,1.975666761E0,-1.883818626E0,-5.033504963E-1,2.775859055E0
2.419481407E0,2.112485647E0,-2.146168709E0,-3.074805737E-1,3.027074502E0
2.427537923E0,2.161844969E0,-2.370255470E0,-1.251566410E-2,3.208089978E0
2.435563922E0,2.189971924E0,-2.589881897E0,4.713714123E-2,3.392003416E0
2.443589921E0,2.105552912E0,-2.742777824E0,1.302471161E-1,3.460223630E0
2.451615920E0,2.006384373E0,-2.840886116E0,1.888477802E-1,3.483084217E0
2.459641920E0,1.791189432E0,-2.848265648E0,9.890902042E-2,3.366119394E0
2.467698436E0,1.566448212E0,-2.697775841E0,-6.945490837E-2,3.120349094E0
2.475724435E0,1.312201977E0,-2.489727020E0,-4.536417723E-1,2.850685097E0
2.483750434E0,9.301231503E-1,-2.211723328E0,-7.374721766E-1,2.510122380E0
2.491776433E0,5.417559743E-1,-1.923358917E0,-9.744778872E-1,2.223154563E0
2.499802432E0,1.119827032E-1,-1.420685768E0,-1.292404652E0,1.923849776E0
2.507828431E0,-2.571668327E-1,-8.686408997E-1,-1.675197005E0,1.904457088E0
2.515854430E0,-5.441466570E-1,-3.005847931E-1,-1.883817077E0,1.983737276E0
2.523910947E0,-8.339315653E-1,1.062326431E-1,-2.023039341E0,2.190756811E0
2.531936946E0,-9.440382719E-1,4.899206161E-1,-1.829201460E0,2.115941504E0
2.539962945E0,-8.984899521E-1,7.711524963E-1,-1.582160711E0,1.976156088E0
2.547988944E0,-8.357742429E-1,9.825925827E-1,-1.271703482E0,1.811418371E0
2.556014943E0,-9.056926966E-1,1.096597672E0,-1.003121376E0,1.740418975E0
2.564040942E0,-9.730828404E-1,1.275003433E0,-7.909614444E-1,1.788335532E0
2.572097458E0,-1.355287433E0,1.408996582E0,-5.518550277E-1,2.031408222E0
2.580123457E0,-1.956253052E0,1.565036774E0,4.361994565E-3,2.505251511E0
2.588149457E0,-2.483066082E0,1.704590797E0,1.234256029E-1,3.014379013E0
2.596175456E0,-2.976757765E0,1.617226601E0,2.715148032E-1,3.398562778E0
2.604201455E0,-3.342189074E0,1.277466774E0,5.224245191E-1,3.615947530E0
2.612227454E0,-3.633594513E0,8.977041245E-1,7.790984511E-1,3.823071563E0
2.620283969E0,-3.838999748E0,5.041961670E-1,9.982447624E-1,3.998577928E0
2.628309968E0,-3.769783020E0,1.227445602E-1,8.061884046E-1,3.856976794E0
2.636335968E0,-3.628504276E0,1.447286606E-1,6.592524648E-1,3.690745654E0
2.644361967E0,-2.912493229E0,1.203250885E-2,2.599550486E-1,2.924096137E0
2.652387966E0,-2.379456758E0,-2.199611664E-1,-3.716986179E-1,2.418337702E0
2.660413965E0,-2.186417103E0,-3.817987442E-1,-9.107792377E-1,2.399105844E0
2.668439964E0,-1.821630001E0,-4.155302048E-1,-1.135015249E0,2.186152060E0
2.676496480E0,-1.303964019E0,-5.432167053E-1,-1.212922335E0,1.861877316E0
2.684522479E0,-5.399465561E-1,-7.008361816E-1,-7.827183008E-1,1.181254238E0
2.692548478E0,-1.596428752E-1,-7.367420197E-1,-1.083929539E-1,7.615928595E-1
2.700574477E0,-7.444208860E-2,-7.467927933E-1,7.128361464E-1,1.035073172E0
2.708600477E0,-2.993684411E-1,-5.790433884E-1,1.230503559E0,1.392498373E0
2.716626476E0,-2.851479053E-1,-3.610172272E-1,1.470783710E0,1.541054019E0
2.724682992E0,1.788893938E-1,-1.915979385E-1,1.640878320E0,1.661683738E0
2.732708991E0,6.733192205E-1,-2.275648117E-1,1.552168131E0,1.707152724E0
2.740734990E0,9.101303816E-1,-2.755355835E-1,1.212970018E0,1.541283048E0
2.748760989E0,9.966533780E-1,-3.384342194E-1,5.726820230E-1,1.198257225E0
2.756786988E0,9.459712505E-1,-2.897624969E-1,4.709601402E-2,9.904756161E-1
2.764812987E0,8.311284781E-1,-1.777534485E-1,7.640910149E-2,8.533517365E-1
2.772869503E0,7.056482434E-1,4.683494568E-3,3.854540586E-1,8.040747539E-1
2.780895502E0,4.987564683E-1,2.222509384E-1,6.099709272E-1,8.186684472E-1
2.788921501E0,2.206464410E-1,4.300317764E-1,7.524458766E-1,8.943081001E-1
2.796947500E0,-1.398614645E-1,6.235218048E-1,7.672757506E-1,9.985252865E-1
2.804973499E0,-5.456187725E-1,1.032916069E0,7.025402784E-1,1.363150136E0
2.812999498E0,-9.922790527E-1,1.486047745E0,5.825591087E-1,1.879449583E0
2.821056015E0,-1.153608322E0,1.858708382E0,5.374358892E-1,2.252653179E0
2.829082014E0,-1.286046386E0,2.234642982E0,5.631306171E-1,2.639064353E0
2.837108013E0,-1.275933027E0,2.446496010E0,5.733592510E-1,2.818171153E0
2.845134012E0,-1.344063640E0,2.673777103E0,7.026128769E-1,3.073964203E0
2.853160011E0,-1.438091040E0,2.837924004E0,8.136558533E-1,3.283893168E0
2.861186010E0,-1.384626031E0,2.898458958E0,8.007984161E-1,3.310518340E0
2.869212009E0,-1.157281160E0,2.786056042E0,8.909232020E-1,3.145656069E0
2.877268526E0,-9.964061379E-1,2.562748909E0,8.951514363E-1,2.891678277E0
2.885294525E0,-9.163985252E-1,2.319090366E0,7.946524620E-1,2.617143275E0
2.893320524E0,-7.883049250E-1,2.155569077E0,6.035071611E-1,2.373209555E0
2.901346523E0,-5.943080187E-1,1.992845535E0,3.676975965E-1,2.111832586E0
2.909372522E0,-2.818666697E-1,1.741898537E0,9.242069721E-2,1.766975075E0
2.917398521E0,1.940578222E-2,1.447819710E0,-1.286073923E-1,1.453650012E0
2.925455037E0,4.851891398E-1,9.523525238E-1,-4.002350569E-1,1.141302734E0
2.933481036E0,7.853803039E-1,4.540920258E-1,-6.726015806E-1,1.129342586E0
2.941507035E0,9.806573391E-1,3.906059265E-2,-8.088575602E-1,1.271796013E0
2.949533034E0,1.317870140E0,-3.500003815E-1,-8.073776960E-1,1.584657918E0
2.957559033E0,1.552700758E0,-5.935192108E-1,-7.713220119E-1,1.832507120E0
2.965585032E0,1.858312368E0,-7.250442505E-1,-6.196008921E-1,2.088760228E0
2.973611031E0,2.111618042E0,-8.378496170E-1,-6.344511509E-1,2.358696886E0
2.981667548E0,2.357499361E0,-8.292102814E-1,-7.536958456E-1,2.610258676E0
2.989693547E0,2.526019096E0,-8.164834976E-1,-9.442322254E-1,2.817621741E0
2.997719546E0,2.633808851E0,-9.096689224E-1,-1.137134552E0,3.009571664E0
3.005745545E0,2.752862692E0,-1.199889183E0,-1.405301690E0,3.315548204E0
3.013802061E0,2.737694025E0,-1.630018234E0,-1.808742166E0,3.663806250E0
3.021828060E0,2.548859119E0,-2.049517632E0,-2.683768034E0,4.230817438E0
3.029854059E0,2.247364521E0,-2.265368462E0,-3.782028913E0,4.948361775E0
3.037880058E0,1.880486369E0,-2.115220070E0,-4.317370892E0,5.162371194E0
3.045906058E0,1.491504073E0,-1.636811256E0,-4.301891327E0,4.838388624E0
3.053962573E0,1.038565755E0,-9.609832764E-1,-3.706411362E0,3.967315574E0
3.061988572E0,8.475546837E-1,-3.229913712E-1,-2.743451118E0,2.889497605E0
3.070014571E0,5.853129625E-1,2.405977249E-1,-1.723835707E0,1.836324610E0
3.078040570E0,4.073283672E-1,3.743419647E-1,-8.928759098E-1,1.050369314E0
3.086066569E0,-6.690728664E-2,8.281040192E-2,-2.967616320E-1,3.152802149E-1
3.094123086E0,-9.273530841E-1,-2.891750336E-1,-8.185386658E-2,9.748363955E-1
3.102149085E0,-1.747086525E0,-5.818815231E-1,3.579806089E-1,1.875912458E0
3.110175084E0,-2.147334814E0,-8.098058701E-1,9.055464268E-1,2.467153559E0
3.118201083E0,-2.032666683E0,-9.568634033E-1,1.393244267E0,2.643567855E0
3.126227082E0,-1.963715076E0,-1.558080673E0,2.221652508E0,3.349557008E0
3.134283599E0,-2.150174379E0,-1.583357811E0,1.307654500E0,2.973252783E0
3.142309598E0,-2.193375826E0,-1.950982094E0,-5.191246867E-1,2.981060060E0
3.150335597E0,-1.822572351E0,-2.494982719E0,-1.957897902E0,3.657878201E0
3.158361596E0,-1.448225141E0,-2.755936623E0,-2.096884489E0,3.753593916E0
3.166418112E0,-1.398563623E0,-2.460800171E0,-1.033453703E0,3.013228210E0
3.174444111E0,-1.617004752E0,-2.066600800E0,2.218050361E-1,2.633389585E0
3.182470110E0,-1.714058161E0,-1.648958206E0,1.126561403E0,2.631767303E0
3.190496109E0,-1.718580008E0,-1.015497208E0,1.702259064E0,2.623440059E0
3.198522108E0,-1.613709211E0,-2.879819870E-1,1.912373781E0,2.518762498E0
3.206578624E0,-1.351208568E0,3.085222244E-1,1.812412381E0,2.281619862E0
3.214604623E0,-1.268822789E0,7.236461639E-1,1.676045299E0,2.223219036E0
3.222630622E0,-1.248591304E0,9.475126266E-1,1.513707042E0,2.179006524E0
3.230656622E0,-1.180906415E0,8.945207596E-1,1.324646473E0,1.987308639E0
3.238713138E0,-1.105347872E0,7.888002396E-1,1.160084963E0,1.786000240E0
3.246739137E0,-1.055144072E0,6.108913422E-1,1.038138270E0,1.601327047E0
3.254765136E0,-9.745216370E-1,4.563369751E-1,9.895092249E-1,1.461870159E0
3.262791135E0,-8.982970119E-1,3.681097031E-1,9.455056787E-1,1.355146953E0
3.270847651E0,-9.412676096E-1,4.133205414E-1,9.102439284E-1,1.373085064E0
3.278873650E0,-9.604582787E-1,4.844541550E-1,8.740645051E-1,1.386060855E0
3.286899649E0,-9.710037112E-1,4.620037079E-1,7.405430675E-1,1.305641478E0
3.294925648E0,-8.663300872E-1,4.586362839E-1,6.154639721E-1,1.157441559E0
3.302951647E0,-7.740645409E-1,5.365333557E-1,6.354631186E-1,1.136159025E0
3.311008164E0,-7.589499950E-1,6.621780396E-1,7.526876926E-1,1.257387615E0
3.319034163E0,-8.545085192E-1,7.565717697E-1,8.899740577E-1,1.447286936E0
3.327060162E0,-9.420335889E-1,8.054990768E-1,1.019778728E0,1.605055980E0
3.335086161E0,-9.819652438E-1,7.324552536E-1,1.025648355E0,1.597717430E0
3.343112160E0,-9.353492856E-1,5.973329544E-1,1.095774055E0,1.559617172E0
3.351138159E0,-8.772692084E-1,3.928108215E-1,1.169420481E0,1.513752247E0
3.359194676E0,-8.378612995E-1,2.025098801E-1,1.160312057E0,1.445456979E0
3.367220675E0,-8.729723692E-1,-4.790878296E-2,1.166789293E0,1.458003177E0
3.375246674E0,-1.024306536E0,-2.388477325E-1,1.081830502E0,1.508843714E0
3.383272673E0,-1.159809828E0,-3.918361664E-1,1.035358906E0,1.603328563E0
3.391298672E0,-1.269381404E0,-5.068159103E-1,9.661142230E-1,1.673788579E0
3.399355187E0,-1.264554977E0,-5.646390915E-1,9.082441330E-1,1.656147336E0
3.407381186E0,-1.048538446E0,-5.557889938E-1,8.918917179E-1,1.484521848E0
3.415407185E0,-6.797337532E-1,-5.808687210E-1,8.552732468E-1,1.237311106E0
3.423433185E0,-3.035445213E-1,-6.352252960E-1,7.381915450E-1,1.020086864E0
3.431459184E0,-8.371466398E-2,-6.039953232E-1,4.281975031E-1,7.450983808E-1
3.439515700E0,1.722645760E-2,-4.584789276E-1,5.514144897E-2,4.621041628E-1
3.447541699E0,-5.676990747E-2,-1.602163315E-1,-4.501259923E-1,4.811501888E-1
3.455567698E0,-2.622647285E-1,3.127746582E-1,-9.004778862E-1,9.886714309E-1
3.463593697E0,-3.863677979E-1,8.245868683E-1,-1.260848284E0,1.555301248E0
3.471650213E0,-3.430576324E-1,1.308548927E0,-1.489134073E0,2.011842221E0
3.479676213E0,-1.977411509E-1,1.532658577E0,-1.553823709E0,2.191463437E0
3.487702212E0,1.157364845E-1,1.597321510E0,-1.516162634E0,2.205352596E0
3.495728211E0,4.607725143E-1,1.454669952E0,-1.303940892E0,2.007146689E0
3.503784727E0,7.181833386E-1,1.233693123E0,-1.002549410E0,1.744388531E0
3.511810726E0,9.173211455E-1,1.092090607E0,-6.354175210E-1,1.561376125E0
3.519836725E0,1.070581198E0,9.768066406E-1,-3.131190538E-1,1.482679620E0
3.527862724E0,1.215093851E0,8.157110214E-1,5.727201700E-2,1.464622006E0
3.535919240E0,1.316495419E0,7.425603867E-1,2.971501946E-1,1.540407204E0
3.543945240E0,1.311904192E0,6.421470642E-1,4.150217772E-1,1.518449386E0
3.551971239E0,1.233487844E0,6.125316620E-1,4.372264147E-1,1.444940911E0
3.560027754E0,1.173866391E0,5.579986572E-1,4.066198468E-1,1.361860678E0
3.568053753E0,1.180400491E0,5.601720810E-1,3.135578632E-1,1.343672807E0
3.576079752E0,1.146281719E0,5.352191925E-1,2.156716585E-1,1.283329898E0
3.584105751E0,1.169768929E0,4.305744171E-1,7.746654749E-2,1.248901414E0
3.592162268E0,1.145026922E0,2.869968414E-1,-1.035664678E-1,1.184980950E0
3.600188267E0,1.071039915E0,2.219581604E-1,-2.140956521E-1,1.114553217E0
3.608214266E0,9.212698936E-1,1.780920029E-1,-3.749870658E-1,1.010480221E0
3.616240265E0,7.652391195E-1,1.245393753E-1,-5.432630777E-1,9.466972788E-1
3.624296782E0,5.935947895E-1,4.000473022E-2,-6.718031168E-1,8.973709268E-1
3.632322781E0,4.143670201E-1,-4.657459259E-2,-8.149791360E-1,9.154562863E-1
3.640348780E0,3.090677261E-1,-1.732521057E-1,-9.139150381E-1,9.801937810E-1
3.648374779E0,2.819344997E-1,-3.734054565E-1,-1.001413226E0,1.105326715E0
3.656431295E0,4.737755060E-1,-7.281866074E-1,-1.025671244E0,1.344143023E0
3.664457294E0,7.614642978E-1,-9.719238281E-1,-9.802156687E-1,1.576479166E0
3.672483293E0,1.082012534E0,-1.152688026E0,-8.927452564E-1,1.815608687E0
3.680509292E0,1.325653791E0,-1.210782051E0,-7.686627507E-1,1.952996051E0
3.688565808E0,1.601591587E0,-1.208694458E0,-5.688277483E-1,2.085570165E0
3.696591807E0,1.734006166E0,-1.108191490E0,-4.013028145E-1,2.096642486E0
3.704617806E0,1.884966254E0,-1.021925926E0,-2.644668818E-1,2.160410403E0
3.712643805E0,2.004920483E0,-9.285011292E-1,-8.306336403E-2,2.211045004E0
3.720700322E0,2.122960567E0,-8.591766357E-1,4.846739769E-2,2.290741179E0
3.728726321E0,2.305088520E0,-9.289884567E-1,1.360566616E-1,2.488968472E0
3.736752320E0,2.379068375E0,-1.018315315E0,1.934789419E-1,2.595065801E0
3.744778319E0,2.396993637E0,-1.163101196E0,1.409050226E-1,2.668002458E0
3.752834835E0,2.352519512E0,-1.382389069E0,-1.121722460E-1,2.730921128E0
3.760860834E0,2.292417526E0,-1.596944809E0,-5.048034787E-1,2.839055721E0
3.768886833E0,2.130234003E0,-1.880555153E0,-1.029252291E0,3.022208608E0
3.776912832E0,1.854106426E0,-2.148983955E0,-1.443251967E0,3.184151209E0
3.784938831E0,1.646445632E0,-2.392318726E0,-1.646571517E0,3.338438237E0
3.792995348E0,1.646150827E0,-2.629491806E0,-1.551427245E0,3.468568322E0
3.801021347E0,1.794942856E0,-2.788792610E0,-1.191528559E0,3.524049430E0
3.809047346E0,2.009637833E0,-3.045649529E0,-6.373287439E-1,3.704161605E0
3.817073345E0,2.161381721E0,-3.220969200E0,-1.137280464E-1,3.880611756E0
3.825129860E0,2.121895313E0,-3.351289749E0,1.624670029E-1,3.969883906E0
3.833155859E0,1.800249219E0,-3.441710472E0,1.816803217E-1,3.888351317E0
3.841181858E0,1.330206752E0,-3.226479530E0,-3.081035614E-2,3.490067254E0
3.849207859E0,8.491328955E-1,-2.554338455E0,-4.016391039E-1,2.721577775E0
3.857233858E0,4.613023400E-1,-1.376893997E0,-1.106070757E0,1.825384740E0
3.865290373E0,1.521834731E-1,-2.009782791E-1,-1.901114225E0,1.917755818E0
3.873316372E0,-3.736436367E-2,9.120655060E-1,-2.689069033E0,2.839780246E0
3.881342371E0,-2.302761674E-1,1.634945869E0,-3.203876495E0,3.604289071E0
3.889398888E0,-2.442971170E-1,1.943461418E0,-3.008587122E0,3.590030618E0
3.897424887E0,-3.025166988E-1,1.978414536E0,-2.437094688E0,3.153580655E0
3.905450886E0,-5.870014429E-1,1.711851120E0,-1.813964367E0,2.562317637E0
3.913476885E0,-9.616054893E-1,1.555398941E0,-1.112330198E0,2.140380679E0
3.921502884E0,-1.117965102E0,1.344743729E0,-5.706098080E-1,1.839504612E0
3.929559400E0,-1.381403804E0,9.239330292E-1,-1.344352067E-1,1.667333661E0
3.937585399E0,-2.067840338E0,6.686038971E-1,2.214046270E-1,2.184494185E0
3.945611398E0,-2.802947998E0,4.785261154E-1,4.161365032E-1,2.873790930E0
3.953637397E0,-3.370509386E0,4.926395416E-1,5.783396959E-1,3.455069325E0
3.961663396E0,-4.138664246E0,5.494718552E-1,7.973001599E-1,4.250429226E0
3.969719913E0,-4.683264256E0,4.964694977E-1,1.258906722E0,4.874863299E0
3.977745912E0,-4.848357201E0,2.895174026E-1,2.015403748E0,5.258539734E0
3.985771911E0,-4.912178516E0,1.910772324E-1,2.211520672E0,5.390438940E0
3.993797910E0,-4.335115433E0,8.393096924E-2,2.088209629E0,4.812576200E0
4.001823909E0,-3.491684198E0,1.653814316E-1,1.650174260E0,3.865525145E0
4.009849908E0,-2.729139090E0,9.686279297E-2,5.618410110E-1,2.788054500E0
4.017906424E0,-1.817316532E0,-1.696958542E-1,-1.197578788E0,2.183032527E0
4.025932423E0,-1.174180031E0,-5.548582077E-1,-2.631108284E0,2.934160387E0
4.033958422E0,-1.056639671E0,-8.978176117E-1,-3.400616884E0,3.672432307E0
4.041984422E0,-1.085213423E0,-9.055681229E-1,-3.305004597E0,3.594551040E0
4.050010421E0,-1.067748547E0,-6.451196671E-1,-2.096054077E0,2.439202541E0
4.058066936E0,-1.192860961E0,-4.223747253E-1,-4.467353821E-1,1.341972497E0
4.066092935E0,-1.625801444E0,1.358394623E-1,2.526179314E0,3.007202125E0
4.074118934E0,-1.829646707E0,4.641761780E-1,4.424560547E0,4.810384873E0
4.082144933E0,-1.059154510E0,1.312780380E-1,4.746162415E0,4.864678804E0
4.090170932E0,-9.720744938E-2,-4.826583862E-1,4.055178165E0,4.084957571E0
4.098227449E0,9.417904615E-1,-8.181571960E-1,2.290802479E0,2.608472056E0
4.106253448E0,1.610769033E0,-1.199422836E0,6.103225946E-1,2.098972532E0
4.114279447E0,1.708878040E0,-1.154479980E0,-6.714205742E-1,2.168846184E0
4.122305446E0,1.044409990E0,-8.035011292E-1,-1.399500608E0,1.922240423E0
4.130361963E0,-1.674558818E-1,-1.332759857E-2,-7.925467491E-1,8.101539649E-1
4.138387962E0,-7.970014811E-1,7.277622223E-1,6.672382355E-3,1.079302429E0
4.146413961E0,-1.195597768E0,1.412931442E0,5.362768173E-1,1.927024159E0
4.154439960E0,-1.377916574E0,1.968003273E0,6.283901930E-1,2.483256975E0
4.162465959E0,-1.550763369E0,2.436236382E0,5.494227409E-1,2.939724491E0
4.170491958E0,-1.747345567E0,3.015957832E0,2.917616367E-1,3.497762575E0
4.178548474E0,-1.829623938E0,3.391243458E0,6.651663780E-2,3.853891592E0
4.186574473E0,-1.853611231E0,3.688603401E0,-1.197636127E-1,4.129892610E0
4.194600472E0,-1.768444538E0,3.831175327E0,-1.299123764E-1,4.221632113E0
4.202626471E0,-1.596815586E0,3.837976933E0,2.350350618E-1,4.163547578E0
4.210682987E0,-1.427851439E0,3.833440781E0,6.296141148E-1,4.138893799E0
4.218708986E0,-1.293648958E0,3.810921192E0,8.934065104E-1,4.122477793E0
4.226734986E0,-1.087001801E0,3.789674759E0,9.198940992E-1,4.048383980E0
4.234760985E0,-7.791624069E-1,3.695770264E0,8.577506542E-1,3.873183198E0
4.242786984E0,-4.150193036E-1,3.373280048E0,6.951203346E-1,3.469070709E0
4.250843500E0,7.146394253E-2,2.896179676E0,5.301265717E-1,2.945165189E0
4.258869499E0,6.291501522E-1,2.127408504E0,3.163427114E-1,2.240930514E0
4.266895498E0,1.225074291E0,1.176489830E0,-4.476845264E-2,1.699099630E0
4.274921497E0,1.749845266E0,1.339101791E-1,-5.366725922E-1,1.835186057E0
4.282978013E0,2.275253773E0,-1.005508423E0,-1.101742268E0,2.720599740E0
4.291004012E0,2.733487129E0,-2.017046928E0,-1.560351014E0,3.738331912E0
4.299030011E0,3.011902809E0,-2.838606834E0,-1.862854481E0,4.538664353E0
4.307086528E0,3.135843515E0,-3.434101105E0,-2.120164633E0,5.110935631E0
4.315112527E0,3.221455336E0,-3.762780190E0,-2.326055765E0,5.472369200E0
4.323138526E0,3.193489552E0,-3.781749725E0,-2.502766609E0,5.546516673E0
4.331164525E0,2.988437653E0,-3.601269722E0,-2.786129713E0,5.446321877E0
4.339221041E0,2.678304195E0,-3.327275276E0,-3.317255497E0,5.408165878E0
4.347247041E0,2.331187963E0,-2.991352081E0,-3.633059740E0,5.251832792E0
4.355273040E0,2.259581327E0,-2.744609833E0,-3.662695646E0,5.104305076E0
4.363299039E0,2.191884995E0,-2.251714706E0,-3.719251156E0,4.869025376E0
4.371325038E0,2.136467218E0,-1.481201172E0,-3.741103411E0,4.555689170E0
4.379381553E0,2.046052933E0,-5.375528336E-1,-3.573177814E0,4.152456544E0
4.387407552E0,1.825938821E0,4.109277725E-1,-3.194002628E0,3.701967990E0
4.395433551E0,1.450538516E0,1.049715996E0,-2.555750370E0,3.120548928E0
4.403459550E0,6.193976402E-1,1.101803780E0,-1.317189455E0,1.825544594E0
4.411516067E0,-8.571707010E-1,4.492425919E-1,1.225726604E-1,9.754919652E-1
4.419542066E0,-1.966364741E0,-4.780845642E-1,1.544644356E0,2.545796797E0
4.427568065E0,-2.471896648E0,-1.090790749E0,2.817305803E0,3.903499646E0
4.435594064E0,-2.482674122E0,-1.296593666E0,3.302570820E0,4.330334854E0
4.443650580E0,-2.900847435E0,-1.490339279E0,2.915476561E0,4.374474892E0
4.451676579E0,-3.239232540E0,-2.127590179E0,1.392104626E0,4.117914850E0
4.459702578E0,-3.331788540E0,-3.473048210E0,-2.079907894E0,5.242985370E0
4.467728578E0,-2.641165257E0,-4.819363594E0,-4.324794292E0,6.993272842E0
4.475754577E0,-2.222600698E0,-4.726493835E0,-2.833929777E0,5.942293818E0
4.483811093E0,-2.146148205E0,-3.467406273E0,-5.690348744E-1,4.117360692E0
4.491837092E0,-1.970649719E0,-1.621170044E0,1.104935288E0,2.780743537E0
4.499863091E0,-1.448916674E0,-4.014663696E-1,2.178941011E0,2.647322932E0
4.507889090E0,-9.064818621E-1,2.133054733E-1,2.931890726E0,3.076230131E0
4.515945606E0,-5.538300872E-1,4.817037582E-1,3.304016829E0,3.384566956E0
4.523971605E0,-4.909976721E-1,8.109292984E-1,3.251623869E0,3.386996136E0
4.531997604E0,-5.407868028E-1,9.617090225E-1,2.957278252E0,3.156394980E0
4.540023604E0,-6.066834927E-1,1.029994011E0,2.535286665E0,2.802968247E0
4.548049603E0,-7.523378730E-1,1.049405098E0,2.035956383E0,2.410888161E0
4.556106118E0,-9.015569091E-1,1.015241623E0,1.529487848E0,2.045202555E0
4.564132117E0,-1.172698259E0,1.042595863E0,1.013511777E0,1.868002533E0
4.572158116E0,-1.298313141E0,1.107713699E0,6.119831204E-1,1.813055430E0
4.580184115E0,-1.229239345E0,1.155831337E0,4.640190899E-1,1.749939759E0
4.588210114E0,-1.426510572E0,1.371570587E0,3.156603873E-1,2.003941059E0
4.596266631E0,-1.599497080E0,1.510807037E0,5.269761086E-1,2.262439531E0
4.604292630E0,-1.757583022E0,1.630987167E0,8.102915883E-1,2.530966155E0
4.612318629E0,-1.868002415E0,1.624265671E0,1.031046629E0,2.681553494E0
4.620344628E0,-1.982289672E0,1.557524681E0,1.171931267E0,2.780068051E0
4.628370627E0,-2.030478477E0,1.418647766E0,1.200047851E0,2.752366105E0
4.636427144E0,-2.034046173E0,1.279248238E0,1.005385160E0,2.604730160E0
4.644453143E0,-1.976853371E0,1.081833839E0,7.037573457E-1,2.360844787E0
4.652479142E0,-1.738710880E0,7.593507767E-1,5.042631626E-1,1.963163382E0
4.660505141E0,-1.353186250E0,3.717479706E-1,5.524985790E-1,1.508165860E0
4.668561657E0,-1.072658777E0,1.058425903E-1,6.601793170E-1,1.263976359E0
4.676587656E0,-8.952478766E-1,-6.726741791E-2,6.934540272E-1,1.134403876E0
4.684613655E0,-6.799883842E-1,-2.554121017E-1,7.760338783E-1,1.062943143E0
4.692639654E0,-5.196715593E-1,-3.678197861E-1,8.199359179E-1,1.038096736E0
4.700665653E0,-2.999035716E-1,-3.733367920E-1,8.355383873E-1,9.630404504E-1
4.708722169E0,-1.622238159E-1,-2.453994751E-1,7.774382830E-1,8.312326706E-1
4.716748168E0,-3.162615001E-2,-1.657419205E-1,6.166206598E-1,6.392899465E-1
4.724774168E0,1.961655915E-2,-8.614253998E-2,3.414011002E-1,3.526472143E-1
4.732800167E0,1.576604545E-1,-1.208658218E-1,1.524068117E-1,2.503861060E-1
4.740856683E0,2.896627486E-1,-8.775520325E-2,7.417583466E-2,3.116208242E-1
4.748882682E0,4.163330495E-1,-1.075935364E-2,1.743960381E-2,4.168370324E-1
4.756908681E0,5.904250145E-1,6.737709045E-3,-6.166386604E-2,5.936745968E-1
4.764934680E0,8.332388997E-1,1.716136932E-2,-2.030749321E-1,8.578000960E-1
4.772960679E0,8.485404849E-1,2.502183914E-1,-4.148038626E-1,9.770836414E-1
4.781017195E0,9.525693655E-1,3.488283157E-1,-6.821852922E-1,1.222475506E0
4.789043194E0,9.627651572E-1,4.401082993E-1,-8.795603514E-1,1.376313364E0
4.797069193E0,9.351645708E-1,5.096778870E-1,-9.450001121E-1,1.423843227E0
4.805095192E0,9.171619415E-1,5.792026520E-1,-8.806286454E-1,1.397200254E0
4.813151709E0,9.422118664E-1,5.455961227E-1,-8.528747559E-1,1.383052305E0
4.821177708E0,8.795859218E-1,5.618772507E-1,-8.846338987E-1,1.368193909E0
4.829203707E0,8.162216544E-1,4.941272736E-1,-8.746457100E-1,1.294366513E0
4.837229706E0,7.715899348E-1,4.309301376E-1,-8.228899240E-1,1.207559373E0
4.845286223E0,7.778469920E-1,3.843336105E-1,-7.430171967E-1,1.142292792E0
4.853312222E0,8.596627712E-1,2.967462540E-1,-6.761943102E-1,1.133277179E0
4.861338221E0,7.876923680E-1,2.136402130E-1,-7.153710127E-1,1.085291248E0
4.869394736E0,8.335577250E-1,1.854915619E-1,-5.647600889E-1,1.023806407E0
4.877420735E0,1.002980590E0,1.308088303E-1,-4.064536095E-1,1.090085112E0
4.885446734E0,1.175067902E0,5.189418793E-2,-3.507541418E-1,1.227398081E0
4.893472733E0,1.267855763E0,-8.087158203E-3,-4.524537325E-1,1.346193901E0
4.901529250E0,1.305902839E0,1.573276520E-2,-5.073156357E-1,1.401070626E0
4.909555249E0,1.396430969E0,2.550888062E-2,-5.071181059E-1,1.485879850E0
4.917581248E0,1.464826465E0,1.405715942E-2,-6.078155041E-1,1.585986716E0
4.925637764E0,1.609611988E0,-8.056163788E-2,-6.958723068E-1,1.755442735E0
4.933663763E0,1.712416530E0,-2.626914978E-1,-7.459316254E-1,1.886210800E0
4.941689762E0,1.791779160E0,-4.289703369E-1,-7.733898163E-1,1.998154128E0
4.949715761E0,1.892191410E0,-6.032037735E-1,-7.922582626E-1,2.138203985E0
4.957772277E0,1.992073655E0,-7.136507034E-1,-6.280916929E-1,2.207295619E0
4.965798277E0,2.046600342E0,-8.444805145E-1,-5.289409161E-1,2.276290577E0
4.973824276E0,2.019539833E0,-9.310550690E-1,-4.613685608E-1,2.271181549E0
4.981850275E0,2.103587627E0,-1.016760826E0,-4.287989140E-1,2.375447746E0
4.989906791E0,2.199706554E0,-1.099422455E0,-4.583358765E-1,2.501501636E0
4.997932790E0,2.303293228E0,-1.181574821E0,-4.475617409E-1,2.627087792E0
5.005958789E0,2.411983967E0,-1.323166847E0,-4.063928127E-1,2.780933707E0
5.013984788E0,2.383735657E0,-1.462107658E0,-3.522007465E-1,2.818510218E0
5.022041304E0,2.210183620E0,-1.586377144E0,-4.236938953E-1,2.753365322E0
5.030067303E0,1.890245914E0,-1.614377975E0,-6.033219099E-1,2.557976386E0
5.038093302E0,1.570936799E0,-1.646254539E0,-7.097978592E-1,2.383654639E0
5.046119301E0,1.243017435E0,-1.708377838E0,-7.886346579E-1,2.255125674E0
5.054175818E0,9.899842739E-1,-1.848372459E0,-8.746142387E-1,2.271893413E0
5.062201817E0,9.347326159E-1,-2.094840050E0,-9.599150419E-1,2.486667808E0
5.070227816E0,1.227377653E0,-2.426034927E0,-8.759319782E-1,2.856459032E0
5.078253815E0,1.444682479E0,-2.691198349E0,-7.687153816E-1,3.149695121E0
5.086279814E0,1.753295302E0,-3.013042450E0,-5.901697874E-1,3.535642742E0
5.094336331E0,1.945543170E0,-3.209773064E0,-5.704547167E-1,3.796472037E0
5.102362330E0,2.174621820E0,-3.401594162E0,-5.220762491E-1,4.070919615E0
5.110388329E0,2.353256226E0,-3.516916275E0,-5.148447752E-1,4.262813636E0
5.118414328E0,2.301291227E0,-3.407653809E0,-5.183786154E-1,4.144485756E0
5.126470843E0,2.091660261E0,-3.054843903E0,-7.100439072E-1,3.769784645E0
5.134496842E0,1.735345125E0,-2.489523888E0,-1.028744817E0,3.204288968E0
5.142522841E0,1.448681712E0,-1.835578918E0,-1.538301110E0,2.798999638E0
5.150548841E0,1.017374992E0,-1.053355217E0,-1.998420238E0,2.477557777E0
5.158574840E0,6.526660919E-1,-3.973855972E-1,-2.155646086E0,2.287072012E0
5.166631356E0,1.859598160E-1,-7.620143890E-2,-1.744776845E0,1.756312601E0
5.174657355E0,-4.142018259E-1,1.469802856E-2,-1.015171528E0,1.096518315E0
5.182683354E0,-8.455822468E-1,1.178741455E-2,-3.482419848E-1,9.145604186E-1
5.190709353E0,-1.233150721E0,8.582115173E-2,1.697400212E-1,1.247733002E0
5.198735352E0,-1.483220339E0,8.963108063E-2,6.356218457E-1,1.616165658E0
5.206761351E0,-1.913118601E0,2.019872665E-1,1.170302391E0,2.251761382E0
5.214817868E0,-2.454955578E0,4.084768295E-1,1.453768492E0,2.882204545E0
5.222843867E0,-3.178895712E0,5.849733353E-1,1.478441477E0,3.554343955E0
5.230869866E0,-3.793827534E0,6.812152863E-1,1.435656548E0,4.113185061E0
5.238895865E0,-4.348950863E0,7.172956467E-1,1.375195742E0,4.617255676E0
5.246921864E0,-4.878937721E0,6.934823990E-1,1.174116373E0,5.065915552E0
5.254947863E0,-4.904421806E0,2.676954269E-1,6.179874539E-1,4.950446706E0
5.263004379E0,-5.024804592E0,1.176042557E-1,3.102678061E-1,5.035748014E0
5.271030378E0,-4.550913334E0,-1.247882843E-2,5.631434917E-1,4.585640466E0
5.279056377E0,-3.596767187E0,-2.278795242E-1,9.257780313E-1,3.720984848E0
5.287082376E0,-2.757563114E0,-3.748607635E-1,1.552350521E0,3.186607453E0
5.295108375E0,-2.398553848E0,-3.113842010E-1,2.190970898E0,3.263491100E0
5.303164892E0,-2.188280582E0,4.400062561E-2,2.272040844E0,3.154786452E0
5.311190891E0,-2.113235235E0,5.152664185E-1,1.742038131E0,2.786747116E0
5.319216890E0,-2.087925911E0,7.154798508E-1,7.883154154E-1,2.343669606E0
5.327242889E0,-1.853632927E0,9.659357071E-1,-3.516030312E-1,2.119578144E0
5.335268888E0,-1.027185202E0,9.053640366E-1,-9.483399391E-1,1.665575611E0
5.343325405E0,-2.270509601E-1,7.693986893E-1,-8.789341450E-1,1.189979711E0
5.351351404E0,4.612328112E-1,6.887807846E-1,-4.416801929E-1,9.392742242E-1
5.359377403E0,7.198333740E-1,6.437892914E-1,9.789776802E-2,9.706743589E-1
5.367403402E0,6.579372287E-1,7.696781158E-1,5.949125290E-1,1.174396320E0
5.375459917E0,5.868656635E-1,8.362817764E-1,9.451174736E-1,1.391770655E0
5.383485916E0,7.201324701E-1,8.249053955E-1,1.453671455E0,1.819950655E0
5.391511915E0,6.672068834E-1,9.065265656E-1,1.370025516E0,1.773111771E0
5.399537914E0,3.672389984E-1,1.061959267E0,1.094208121E0,1.568411100E0
5.407563913E0,-3.175652027E-1,1.448531151E0,7.968499660E-1,1.683466668E0
5.415589913E0,-8.821979761E-1,1.838862896E0,8.279317617E-1,2.201172647E0
5.423646429E0,-1.423436403E0,2.252229214E0,9.345660210E-1,2.823494514E0
5.431672428E0,-1.748812437E0,2.602487564E0,1.144674063E0,3.337898316E0
5.439698427E0,-2.005823135E0,2.808494091E0,1.353204608E0,3.707037661E0
5.447724426E0,-2.094847202E0,2.891646862E0,1.594317198E0,3.910479984E0
5.455750425E0,-2.118050098E0,2.899992943E0,1.727126837E0,3.984854125E0
5.463776424E0,-1.933676481E0,2.869591236E0,1.779103041E0,3.890869598E0
5.471832941E0,-1.772251844E0,2.939160824E0,1.703988671E0,3.831855992E0
5.479858940E0,-1.641625285E0,2.945845127E0,1.531738758E0,3.703938541E0
5.487884939E0,-1.568266392E0,2.850834370E0,1.402009606E0,3.542929158E0
5.495910938E0,-1.300313950E0,2.565569878E0,1.261515141E0,3.140761948E0
5.503936937E0,-8.384691477E-1,2.032216072E0,1.082275271E0,2.450357614E0
5.511993453E0,-2.477342635E-1,1.331489563E0,8.014876842E-1,1.573727813E0
5.520019452E0,2.268802822E-1,6.976737976E-1,3.694909811E-1,8.214298360E-1
5.528045451E0,5.512248874E-1,-8.692741394E-3,-3.215404749E-1,6.382105587E-1
5.536071450E0,9.152730703E-1,-7.186775208E-1,-1.134906769E0,1.625495477E0
5.544097449E0,1.219824195E0,-1.263036728E0,-2.092572689E0,2.731683236E0
5.552153966E0,1.731013417E0,-1.647191048E0,-3.180798292E0,3.978331758E0
5.560179965E0,2.191071987E0,-1.823508263E0,-4.038038731E0,4.942846915E0
5.568205964E0,2.701636076E0,-1.968701363E0,-4.886338711E0,5.920382466E0
5.576231963E0,3.035740137E0,-2.092372894E0,-5.620306492E0,6.721725044E0
5.584257962E0,3.135078669E0,-2.256201744E0,-5.930137157E0,7.077124506E0
5.592283961E0,2.804117441E0,-2.471713066E0,-5.529976368E0,6.674809266E0
5.600340477E0,2.346614599E0,-2.661701202E0,-4.609422207E0,5.817046196E0
5.608366477E0,1.742589831E0,-2.633818626E0,-3.444516897E0,4.673148460E0
5.616392476E0,1.329005480E0,-2.372721672E0,-2.338543415E0,3.586760238E0
5.624418475E0,8.312771916E-1,-1.799011230E0,1.398190022E0,2.425365645E0
5.632474990E0,6.680768728E-1,-9.214010239E-1,-1.448413134E-1,1.147294888E0
5.640500989E0,8.852348924E-1,-7.336015701E-1,-1.467463970E-1,1.159028293E0
5.648526988E0,1.085904479E0,-3.247823715E-1,-2.266690731E-1,1.155876721E0
5.656552987E0,1.059437275E0,5.864391327E-1,-1.074808717E0,1.619114565E0
5.664578986E0,4.642485976E-1,1.301798820E0,-9.978097677E-1,1.704649894E0
5.672635503E0,-1.954720020E-1,1.527234077E0,-9.394128323E-1,1.803648996E0
5.680661502E0,-5.758309364E-1,1.286147118E0,-7.638398409E-1,1.602874598E0
5.688687501E0,-8.247568607E-1,5.605335236E-1,-3.153957129E-1,1.045894912E0
5.696744017E0,-1.130904913E0,-4.034261703E-1,3.434972763E-1,1.248875084E0
5.704770016E0,-1.581652641E0,-1.675903320E0,1.000586867E0,2.512260157E0
5.712796016E0,-1.995746613E0,-2.709223747E0,1.447599292E0,3.663119103E0
5.720822015E0,-2.312806606E0,-3.243244171E0,1.208806276E0,4.162801913E0
5.728878531E0,-2.707808495E0,-3.796108246E0,2.404628992E-1,4.669099170E0
5.736904530E0,-3.059067011E0,-4.174508095E0,-9.988729954E-1,5.270878112E0
5.744930529E0,-3.100990295E0,-4.137864113E0,-1.640932322E0,5.425008674E0
5.752956528E0,-2.805742741E0,-2.961282730E0,-1.245785952E0,4.265368726E0
5.761013044E0,-2.311152935E0,-8.915805817E-1,-3.977346420E-1,2.508891522E0
5.769039043E0,-1.690054774E0,5.392589569E-1,-2.340660095E-1,1.789377618E0
5.777065042E0,-1.187333822E0,1.190784454E0,3.571581841E-1,1.719096039E0
5.785091041E0,-9.036249518E-1,1.332102776E0,9.860694408E-1,1.887688746E0
5.793147557E0,-9.489949942E-1,1.186509132E0,1.569238305E0,2.184239977E0
5.801173556E0,-9.520584345E-1,8.862619400E-1,1.987939477E0,2.375663876E0
5.809199555E0,-9.189379811E-1,6.813573837E-1,2.194075823E0,2.474401668E0
5.817225554E0,-8.201645613E-1,5.327081680E-1,2.161489964E0,2.372443205E0
5.825282071E0,-7.865873575E-1,5.427551270E-1,2.055280209E0,2.266600877E0
5.833308070E0,-8.604329228E-1,6.173620224E-1,2.054612398E0,2.311474159E0
5.841334069E0,-9.627408981E-1,7.827529907E-1,2.041655540E0,2.389127378E0
5.849390586E0,-1.174765110E0,8.616189957E-1,2.088292599E0,2.546257319E0
5.857416585E0,-1.500735760E0,9.906215668E-1,2.161352634E0,2.811580360E0
5.865442584E0,-1.765513301E0,1.076534271E0,2.158526421E0,2.989180416E0
5.873468583E0,-1.988255262E0,1.160344124E0,2.184397221E0,3.173507317E0
5.881525098E0,-2.013615608E0,1.158442497E0,2.118933201E0,3.144282867E0
5.889551097E0,-1.943256140E0,1.096990585E0,1.879008293E0,2.917242694E0
5.897577096E0,-1.642716885E0,1.066967964E0,1.387880445E0,2.400656479E0
5.905603095E0,-1.137840509E0,8.814172745E-1,7.942394018E-1,1.643895880E0
5.913659612E0,-4.081158042E-1,6.000204086E-1,7.486850023E-2,7.295123664E-1
5.921685611E0,1.537552476E-1,3.372087479E-1,-5.288484693E-1,6.457794664E-1
5.929711610E0,3.827847242E-1,3.790283203E-2,-8.719131947E-1,9.529918094E-1
5.937737609E0,3.641679883E-1,-1.446495056E-1,-7.871015668E-1,8.792443799E-1
5.945794125E0,3.216515779E-1,-2.751379013E-1,-3.960982561E-1,5.797020190E-1
5.953820125E0,2.872676849E-1,-4.299211502E-1,2.196761668E-1,5.617940338E-1
5.961846124E0,3.247615099E-1,-5.057544708E-1,6.786197424E-1,9.065221331E-1
5.969872123E0,4.761547148E-1,-6.512403488E-1,1.113915920E0,1.375371216E0
5.977928639E0,6.410480738E-1,-6.338415146E-1,1.352084875E0,1.625063447E0
5.985954638E0,9.143801928E-1,-7.197303772E-1,1.382323503E0,1.806909301E0
5.993980637E0,9.955340624E-1,-5.643358231E-1,1.283106804E0,1.719280681E0
6.002037153E0,7.908984423E-1,-3.042335510E-1,1.151592493E0,1.429770495E0
6.010063152E0,4.883791506E-1,8.222007751E-2,9.889003038E-1,1.105982887E0
6.018089151E0,3.207014203E-1,4.443006516E-1,7.573947310E-1,9.348257851E-1
6.026115150E0,2.405187488E-1,8.228540421E-1,4.101023674E-1,9.503273093E-1
6.034141150E0,1.800558567E-1,1.007306099E0,1.940220296E-1,1.041503834E0
6.042197665E0,-6.166696548E-3,1.150958061E0,2.941708639E-2,1.151350447E0
6.050223664E0,-1.282829642E-1,1.237125397E0,-1.301782876E-1,1.250552739E0
6.058249663E0,-1.897454560E-1,1.105476379E0,-5.494590998E-1,1.248994262E0
6.066275662E0,-1.964335740E-1,1.028874397E0,-7.945455909E-1,1.314713418E0
6.074332179E0,3.276246786E-2,9.761552811E-1,-8.878909945E-1,1.319963231E0
6.082358178E0,2.189370394E-1,8.586940765E-1,-8.570429683E-1,1.232806389E0
6.090384177E0,3.675596118E-1,6.979818344E-1,-6.656965017E-1,1.032196949E0
6.098410176E0,4.761784375E-1,5.826473236E-1,-4.762488604E-1,8.905261282E-1
6.106466693E0,5.523754954E-1,5.198774338E-1,-3.093132675E-1,8.191861397E-1
6.114492692E0,6.840662360E-1,4.689083099E-1,-1.806315929E-1,8.487929021E-1
6.122518691E0,7.801178694E-1,4.272403717E-1,-7.815921307E-2,8.928757405E-1
6.130544690E0,8.135358095E-1,3.828115463E-1,-2.899470925E-2,8.995698342E-1
6.138570689E0,8.560132980E-1,3.978013992E-1,-6.467521191E-2,9.461435423E-1
6.146596688E0,8.023130298E-1,3.979187012E-1,-2.478564978E-1,9.292353491E-1
6.154653204E0,7.459036708E-1,3.855876923E-1,-5.675678253E-1,1.013500563E0
6.162679203E0,6.890937686E-1,2.506618500E-1,-8.749221563E-1,1.141564875E0
6.170705202E0,3.806351423E-1,1.601486206E-1,-1.036850095E0,1.116059502E0
6.178731201E0,1.485758424E-1,4.703903198E-2,-1.081195951E0,1.092369962E0
6.186757200E0,1.147359610E-2,-1.765775681E-1,-9.589402676E-1,9.751295902E-1
6.194813716E0,-2.769756317E-2,-3.406791687E-1,-8.335269690E-1,9.008865961E-1
6.202839715E0,-2.601093054E-2,-4.526042938E-1,-6.535766721E-1,7.954179289E-1
6.210865714E0,1.251549125E-1,-6.397495270E-1,-4.520740509E-1,7.932932351E-1
6.218891714E0,3.514987826E-1,-7.191143036E-1,-4.129067063E-1,9.006490570E-1
6.226948230E0,6.573054194E-1,-7.124242783E-1,-4.242835343E-1,1.058118748E0
6.234974229E0,9.722747207E-1,-7.202682495E-1,-3.283543587E-1,1.253762764E0
6.243000228E0,1.279464602E0,-8.479700089E-1,-1.431587785E-1,1.541615140E0
6.251026227E0,1.592697859E0,-9.471092224E-1,2.501459420E-1,1.869832971E0
6.259052226E0,1.815447569E0,-9.961700439E-1,6.027161479E-1,2.156727008E0
6.267108742E0,1.915897846E0,-1.160386086E0,7.538189888E-1,2.363345826E0
6.275134741E0,1.893220901E0,-1.286571503E0,5.592085719E-1,2.356324647E0
6.283160740E0,1.635009289E0,-1.070815086E0,1.775110364E-1,1.962501081E0
6.291186739E0,1.157766104E0,-1.025490761E0,-3.988657594E-1,1.597231212E0
6.299243256E0,6.939709783E-1,-1.002156258E0,-1.024737477E0,1.592482270E0
6.307269255E0,4.049805999E-1,-1.038881302E0,-1.584116340E0,1.937190807E0
6.315295254E0,3.209871054E-1,-1.216926575E0,-1.977874279E0,2.344339923E0
6.323321253E0,3.740162849E-1,-1.265592575E0,-2.090817213E0,2.472474341E0
6.331377769E0,5.765188336E-1,-1.472118378E0,-2.003214836E0,2.551935768E0
6.339403769E0,7.776787281E-1,-1.688027382E0,-1.609990358E0,2.458920414E0
6.347429768E0,9.449432492E-1,-1.889504433E0,-1.109728932E0,2.386345124E0
6.355455767E0,1.069738150E0,-2.086286545E0,-6.060153842E-1,2.421608123E0
6.363481766E0,1.176398277E0,-2.154100418E0,-2.235714495E-1,2.464557914E0
6.371538281E0,1.321863890E0,-2.128997803E0,1.178716198E-1,2.508754573E0
6.379564280E0,1.487953305E0,-2.116558075E0,4.829067290E-1,2.631923637E0
6.387590279E0,1.643795252E0,-2.279747963E0,8.860971928E-1,2.946944492E0
6.395616278E0,1.688186646E0,-2.491958618E0,1.004969001E0,3.173293966E0
6.403672795E0,1.626672983E0,-2.519040108E0,1.042385578E0,3.174617418E0
6.411698794E0,1.361241579E0,-2.045339584E0,9.050450325E-1,2.618300816E0
6.419724793E0,1.014077783E0,-1.380355835E0,4.870794415E-1,1.780725235E0
6.427750792E0,7.462462187E-1,-8.429431915E-1,-1.312654018E-1,1.133431625E0
6.435807308E0,4.219098091E-1,-4.672937393E-1,-6.174956560E-1,8.818572509E-1
6.443833308E0,4.871606827E-2,-3.407592773E-1,-8.034575582E-1,8.740904920E-1
6.451859307E0,-6.675521135E-1,-3.131361008E-1,-7.645231485E-1,1.062156150E0
6.459885306E0,-1.512477994E0,-3.781480789E-1,-4.614833593E-1,1.625900533E0
6.467911305E0,-2.624645948E0,-5.952434540E-1,3.244638443E-3,2.691299250E0
6.475967821E0,-3.477039814E0,-1.034147263E0,6.189879179E-1,3.680001694E0
6.483993820E0,-4.071939468E0,-1.091910362E0,1.352233171E0,4.427357431E0
6.492019819E0,-4.447700977E0,-9.795703888E-1,1.961025953E0,4.958550687E0
6.500045818E0,-4.668745041E0,-7.267084122E-1,2.030969143E0,5.142968115E0
6.508102334E0,-4.702030182E0,-7.306241989E-1,1.880521178E0,5.116567155E0
6.516128333E0,-4.460897923E0,-9.264850616E-1,1.866078138E0,4.923437058E0
6.524154332E0,-4.247627258E0,-1.276464462E0,1.634006858E0,4.726698347E0
6.532180332E0,-3.990940332E0,-1.532733917E0,1.279597998E0,4.462538407E0
6.540206331E0,-3.691392422E0,-1.668727875E0,9.178946018E-1,4.153740631E0
6.548262846E0,-3.142662048E0,-1.572533607E0,7.224106789E-1,3.587626498E0
6.556288845E0,-2.341506243E0,-1.306502342E0,7.833414078E-1,2.793425069E0
6.564314844E0,-1.539385080E0,-1.040032387E0,9.802085161E-1,2.100519585E0
6.572340844E0,-4.486576319E-1,-7.167224884E-1,1.726081491E0,1.922067144E0
6.580366843E0,3.051289320E-1,-5.898933411E-1,1.754745722E0,1.876222366E0
6.588423359E0,9.794237614E-1,-8.446083069E-1,1.956085443E0,2.344974277E0
6.596449358E0,4.153659344E-1,-7.657928467E-1,1.651965261E0,1.867607230E0
6.604475357E0,4.499229193E-1,-9.790258408E-1,1.949251294E0,2.227218633E0
6.612501356E0,3.071454763E-1,-8.756666183E-1,2.009105682E0,2.213060327E0
6.620527355E0,1.547434330E-1,-6.111707687E-1,2.221206665E0,2.308946575E0
6.628583872E0,7.500648499E-2,-2.779865265E-1,2.575222254E0,2.591268442E0
6.636609871E0,-9.053730965E-2,1.474351883E-1,2.713989735E0,2.719498928E0
6.644635870E0,-3.057576418E-1,4.845075607E-1,2.772143602E0,2.830727020E0
6.652661869E0,-7.501987219E-1,8.801469803E-1,2.869050264E0,3.093364875E0
6.660687868E0,-1.102328181E0,1.100623608E0,2.909563541E0,3.300312068E0
6.668713867E0,-1.558487296E0,1.337947845E0,2.833696365E0,3.499831736E0
6.676770383E0,-2.039452076E0,1.575566769E0,2.668463230E0,3.709780509E0
6.684796382E0,-2.431062937E0,1.769207954E0,2.551668882E0,3.943498177E0
6.692822381E0,-2.921145439E0,2.185073376E0,2.305918694E0,4.315657233E0
6.700848381E0,-3.582287788E0,2.610706329E0,1.858808875E0,4.806635390E0
6.708904896E0,-3.886774540E0,2.931195736E0,1.641032219E0,5.137305861E0
6.716930896E0,-4.066623211E0,3.132001400E0,1.573260427E0,5.368612994E0
6.724956895E0,-4.037169933E0,3.246393681E0,1.714052081E0,5.456719485E0
6.732982894E0,-3.889520645E0,3.280554771E0,2.029847622E0,5.478201514E0
6.741008893E0,-3.691734314E0,3.251099110E0,2.323017120E0,5.440124650E0
6.749065409E0,-3.536488056E0,3.233873367E0,2.531286001E0,5.419602711E0
6.757091408E0,-3.287162066E0,3.228184223E0,2.721067429E0,5.350777119E0
6.765117407E0,-3.062976360E0,3.162358284E0,2.829681158E0,5.233491144E0
6.773143406E0,-2.527641296E0,2.810748100E0,2.879030943E0,4.751641251E0
6.781199922E0,-1.921125650E0,2.264449120E0,2.814473152E0,4.091419400E0
6.789225921E0,-1.197562337E0,1.480007648E0,2.436305761E0,3.091951480E0
6.797251920E0,-5.618550777E-1,5.376386642E-1,1.733014822E0,1.899493837E0
6.805277919E0,-1.151926517E-1,-2.236509323E-1,9.543058872E-1,9.869087156E-1
6.813303918E0,3.224334717E-1,-9.754810333E-1,-3.622412682E-2,1.028026642E0
6.821360435E0,8.632934093E-1,-1.700032234E0,-1.146786451E0,2.224972870E0
6.829386434E0,1.498325586E0,-2.336043358E0,-2.354321957E0,3.639355713E0
6.837412433E0,2.269275188E0,-2.927453995E0,-3.620291233E0,5.179392376E0
6.845438432E0,2.747933388E0,-3.151514053E0,-4.761564255E0,6.336850391E0
6.853494949E0,3.104114056E0,-3.395464897E0,-5.850351334E0,7.442534290E0
6.861520948E0,3.214307785E0,-3.451828957E0,-5.885566235E0,7.542333033E0
6.869546947E0,2.819651604E0,-3.166406631E0,-4.811004639E0,6.412669628E0
6.877572946E0,2.031830788E0,-2.510251999E0,-3.181559801E0,4.533434042E0
6.885598945E0,1.718029737E0,-2.049743652E0,-1.818233728E0,3.234045317E0
6.893655460E0,1.412223339E0,-1.836041451E0,-1.029357195E0,2.534758214E0
6.901681459E0,8.918437958E-1,-1.425443649E0,-8.089270592E-1,1.865914773E0
6.909707459E0,4.472184181E-1,-8.993206024E-1,-5.399994850E-1,1.140342625E0
6.917733458E0,2.849566936E-1,-3.845243454E-1,6.903409958E-3,4.786511742E-1
6.925759457E0,6.034858227E-1,-1.721334457E-1,1.254522800E-1,6.399713555E-1
6.933815973E0,6.568660736E-1,1.125268936E-1,2.677495480E-1,7.182096914E-1
6.941841972E0,2.753531933E-1,3.446445465E-1,6.506574154E-1,7.861007039E-1
6.949867971E0,-6.523026228E-1,4.449987411E-1,1.166270137E0,1.408441913E0
6.957893970E0,-1.583620310E0,-1.188802719E-1,1.762831211E0,2.372669316E0
6.965919969E0,-2.322545052E0,-1.056675911E0,2.096023083E0,3.302134501E0
6.973945968E0,-2.566535950E0,-2.228307724E0,2.305217743E0,4.106883360E0
6.982002485E0,-2.611443520E0,-2.990818024E0,1.820630074E0,4.367988504E0
6.990028484E0,-2.946277618E0,-3.297097206E0,3.647886515E-1,4.436718669E0
6.998054483E0,-3.370686531E0,-3.668619156E0,-2.078639030E0,5.398243642E0
7.006080482E0,-3.086791039E0,-3.850388527E0,-2.780066013E0,5.664144928E0
7.014106481E0,-2.273027182E0,-3.162866592E0,-9.602925777E-1,4.011550758E0
7.022132480E0,-1.952491045E0,-2.178261757E0,1.242570162E0,3.178211159E0
7.030188996E0,-2.110127926E0,-1.397444725E0,2.501713991E0,3.558660495E0
7.038214995E0,-2.259341955E0,-9.285516739E-1,3.081846237E0,3.932506899E0
7.046240994E0,-2.361351967E0,-5.475702286E-1,3.317466021E0,4.108697733E0
7.054266993E0,-2.085682392E0,6.420898438E-2,3.325308800E0,3.925795773E0
7.062292992E0,-1.799489617E0,5.987653732E-1,3.229989052E0,3.745599035E0
7.070349509E0,-1.629639387E0,1.012895584E0,3.122600555E0,3.665012445E0
7.078375508E0,-1.730025053E0,1.382604599E0,3.004495621E0,3.732502659E0
7.086401507E0,-1.829100847E0,1.602334499E0,2.843461990E0,3.741438473E0
7.094427506E0,-1.880952954E0,1.653154373E0,2.697036743E0,3.680341097E0
7.102453505E0,-1.943001866E0,1.473254204E0,2.572268486E0,3.544333416E0
7.110479504E0,-1.986243367E0,1.099017143E0,2.394880772E0,3.299765947E0
7.118536021E0,-2.123741150E0,6.455726624E-1,2.299490690E0,3.196044112E0
7.126562020E0,-2.046976089E0,2.906980515E-1,2.150733709E0,2.983332358E0
7.134588019E0,-2.186432600E0,1.421604156E-1,1.977681041E0,2.951596076E0
7.142614018E0,-2.309276104E0,3.007984161E-2,1.780176878E0,2.915937352E0
7.150640017E0,-2.637766361E0,1.003446579E-1,1.569144726E0,3.070846072E0
7.158696532E0,-2.920988083E0,1.494703293E-1,1.269928813E0,3.188609721E0
7.166722531E0,-2.998149872E0,1.018524170E-2,1.038755178E0,3.173014137E0
7.174748531E0,-2.797233582E0,-2.573413849E-1,9.020768404E-1,2.950336070E0
7.182774530E0,-2.214144707E0,-6.006088257E-1,9.831124544E-1,2.495932259E0
7.190800529E0,-1.225809813E0,-6.847600937E-1,1.052085400E0,1.754534061E0
7.198857045E0,-5.760157704E-1,-6.044960022E-1,1.187265992E0,1.451485488E0
7.206883044E0,-1.219651699E-1,-4.718904495E-1,1.508726954E0,1.585500906E0
7.214909043E0,6.546747684E-2,-4.142303467E-1,1.771193266E0,1.820164376E0
7.222935042E0,8.767855167E-2,-3.674745560E-1,1.990610838E0,2.026143279E0
7.230961041E0,1.005992889E-1,-3.891105652E-1,2.277530193E0,2.312719402E0
7.238987040E0,5.047273636E-2,-4.000291824E-1,2.447504282E0,2.480493510E0
7.247043557E0,4.797196388E-2,-4.143295288E-1,2.677418709E0,2.709712385E0
7.255069556E0,1.169844866E-1,-4.009590149E-1,2.644869804E0,2.677646314E0
7.263095555E0,3.541226387E-1,-4.797906876E-1,2.340431690E0,2.415206501E0
7.271121554E0,9.690932035E-1,-5.531806946E-1,1.981751680E0,2.274310938E0
7.279178070E0,1.237803340E0,-4.352016449E-1,1.478697181E0,1.976892241E0
7.287204069E0,1.097317696E0,-2.674922943E-1,8.437495232E-1,1.409812580E0
7.295230068E0,6.338826418E-1,1.438617706E-2,5.500204563E-1,8.393668257E-1
7.303256067E0,-8.430635929E-2,4.639024734E-1,5.124519467E-1,6.963620214E-1
7.311312584E0,-6.965864301E-1,1.061248779E0,5.204914808E-1,1.372003283E0
7.319338583E0,-1.000375986E0,1.468079567E0,4.144783020E-1,1.824226409E0
7.327364582E0,-1.114272118E0,1.695079327E0,1.344691217E-1,2.032972754E0
7.335390581E0,-1.026656628E0,1.769233227E0,-2.314554602E-1,2.058587300E0
7.343447097E0,-8.879119754E-1,1.687803745E0,-3.073077798E-1,1.931710959E0
7.351473096E0,-7.765586376E-1,1.447636604E0,-3.488786817E-1,1.679408048E0
7.359499096E0,-7.294242382E-1,1.203769684E0,-3.731506169E-1,1.456146474E0
7.367525095E0,-5.424411297E-1,8.407211304E-1,-1.473627687E-1,1.011321009E0
7.375581610E0,-4.269655943E-1,5.282468796E-1,1.212546229E-1,6.899616425E-1
7.383607609E0,-2.704651356E-1,3.568801880E-1,3.164659142E-1,5.483297667E-1
7.391633608E0,-1.258332729E-1,2.402248383E-1,3.862908483E-1,4.719773352E-1
7.399659607E0,-4.457139969E-2,1.782121658E-1,2.952565551E-1,3.477392975E-1
7.407716124E0,2.327334881E-2,1.566467285E-1,1.585818529E-1,2.241161538E-1
7.415742123E0,1.205481291E-1,2.212362289E-1,2.775365114E-2,2.534710744E-1
7.423768122E0,2.297408581E-1,2.141408920E-1,-1.023749709E-1,3.303298627E-1
7.431794121E0,2.121081352E-1,2.383098602E-1,-2.509312332E-1,4.058915302E-1
7.439850637E0,2.687759399E-1,2.195625305E-1,-4.026457071E-1,5.315748077E-1
7.447876636E0,2.627110481E-1,1.339445114E-1,-5.826873779E-1,6.530565116E-1
7.455902636E0,2.144861221E-1,2.686023712E-2,-7.760066986E-1,8.055508458E-1
7.463928635E0,2.693731785E-1,-1.687393188E-1,-8.856596947E-1,9.409718177E-1
7.471954634E0,3.959310055E-1,-4.194431305E-1,-9.702252150E-1,1.128729759E0
7.480011150E0,6.293663979E-1,-6.679754257E-1,-1.007293224E0,1.362693242E0
7.488037149E0,8.820674419E-1,-7.850637436E-1,-1.106310606E0,1.618113473E0
7.496063148E0,1.436377764E0,-9.624719620E-1,-9.971432686E-1,1.995952919E0
7.504089147E0,2.140438318E0,-1.205291748E0,-9.575065374E-1,2.636479312E0
7.512145663E0,2.386945724E0,-1.303455353E0,-7.099208236E-1,2.810781622E0
7.520171662E0,2.518857479E0,-1.148797989E0,-4.476135671E-1,2.804413972E0
7.528197661E0,2.676474571E0,-9.182224274E-1,-2.146623135E-1,2.837732980E0
7.536223660E0,2.878276110E0,-7.864446640E-1,-1.367220283E-1,2.986915045E0
7.544280176E0,3.004739046E0,-6.599740982E-1,-2.176821828E-1,3.084057081E0
7.552306175E0,3.033671618E0,-6.581983566E-1,-3.889827728E-1,3.128529392E0
7.560332174E0,2.897547245E0,-7.399177551E-1,-4.991022646E-1,3.031890729E0
7.568358173E0,2.480123758E0,-1.024604797E0,-5.614005327E-1,2.741532310E0
7.576414690E0,2.087133884E0,-1.475835800E0,-7.234948277E-1,2.656626418E0
7.584440689E0,1.799978256E0,-1.921142578E0,-9.726480842E-1,2.806555687E0
7.592466688E0,1.557744980E0,-2.277004242E0,-1.315228462E0,3.056328459E0
7.600492687E0,1.406816483E0,-2.507674217E0,-1.460867882E0,3.225166285E0
7.608549204E0,1.489329219E0,-2.749882698E0,-1.414251924E0,3.432209912E0
7.616575203E0,1.663305283E0,-2.872210503E0,-1.221336961E0,3.536642703E0
7.624601202E0,1.874347091E0,-2.925249100E0,-9.732292891E-1,3.607968204E0
7.632627201E0,2.199604034E0,-3.031315804E0,-7.696315050E-1,3.823541037E0
7.640683716E0,2.446975708E0,-3.214625359E0,-6.307857633E-1,4.088935924E0
7.648709715E0,2.560460091E0,-3.561573029E0,-4.218279123E-1,4.406665077E0
7.656735714E0,2.476418495E0,-3.849785805E0,-3.115747273E-1,4.588090901E0
7.664761713E0,2.215820312E0,-3.858969688E0,-3.753609359E-1,4.465691721E0
7.672818230E0,1.763107061E0,-3.392600060E0,-6.916973591E-1,3.885450670E0
7.680844229E0,1.396680713E0,-2.706677437E0,-1.000791073E0,3.205994780E0
7.688870228E0,7.361445427E-1,-1.887969017E0,-1.236300945E0,2.373768275E0
7.696896227E0,2.877200842E-1,-1.087939262E0,-1.118040442E0,1.586319361E0
7.704952744E0,-2.105257511E-1,-1.664552689E-1,-5.558045506E-1,6.172091598E-1
7.712978743E0,-7.911405563E-1,4.537467957E-1,1.984966844E-1,9.333758451E-1
7.721004742E0,-1.629906058E0,7.383651733E-1,9.864025712E-1,2.043224638E0
7.729030741E0,-2.644755840E0,1.027427673E0,1.737446308E0,3.327019800E0
7.737087257E0,-3.656132221E0,1.260048866E0,2.189278841E0,4.443868563E0
7.745113256E0,-4.497381687E0,1.210270882E0,2.485024214E0,5.278877058E0
7.753139255E0,-5.276150227E0,9.784250259E-1,2.750435114E0,6.029922890E0
7.761165254E0,-5.794703484E0,6.646757126E-1,3.008117199E0,6.562709147E0
7.769191253E0,-5.965089798E0,2.317724228E-1,3.140172005E0,6.745123792E0
7.777247769E0,-5.425735474E0,-7.849597931E-2,3.202415466E0,6.300812001E0
7.785273769E0,-4.985315323E0,-1.246423721E-1,2.940086603E0,5.789042565E0
7.793299768E0,-4.142691135E0,-2.491483688E-1,2.559517860E0,4.875971332E0
7.801325767E0,-3.667774439E0,-2.928085327E-1,1.213710546E0,3.874454731E0
7.809351766E0,-2.705778122E0,-5.097379684E-1,-3.193979263E-1,2.771837491E0
7.817408282E0,-1.266966343E0,-8.636741638E-1,-1.143938065E0,1.913042360E0
7.825434281E0,-5.750420094E-1,-9.498662949E-1,-1.507856846E0,1.872578852E0
7.833460280E0,-3.356218338E-1,-9.474716187E-1,-1.450395823E0,1.764650823E0
7.841486279E0,-7.006491423E-1,-6.660194397E-1,-1.055884600E0,1.431566765E0
7.849512278E0,-1.204341412E0,-2.568044662E-1,-2.310328484E-1,1.252901810E0
7.857568794E0,-1.518323421E0,2.354154587E-1,7.327502966E-1,1.702248351E0
7.865594793E0,-1.819621563E0,5.867795944E-1,1.826495290E0,2.644128962E0
7.873620792E0,-2.073857307E0,9.514541626E-1,2.613020897E0,3.469009565E0
7.881646791E0,-2.088649511E0,1.109076500E0,2.998123407E0,3.818540484E0
7.889672790E0,-1.846020460E0,1.174516678E0,3.347894669E0,3.999459923E0
7.897698789E0,-1.525857568E0,1.218782425E0,3.568233967E0,4.067673236E0
7.905755306E0,-1.168041110E0,1.147215843E0,3.534864426E0,3.895598893E0
7.913781305E0,-9.677926302E-1,1.097170830E0,3.414333344E0,3.714576501E0
7.921807304E0,-9.828561544E-1,1.091773987E0,3.121260166E0,3.449672692E0
7.929833303E0,-1.101503611E0,1.108464241E0,2.701220989E0,3.120672686E0
7.937859302E0,-1.266809225E0,1.113012314E0,2.368826866E0,2.907738424E0
7.945885301E0,-1.630405545E0,1.162148476E0,2.103157997E0,2.903805242E0
7.953911300E0,-2.107019424E0,1.179302216E0,2.004518032E0,3.138212407E0
7.961967817E0,-2.551355362E0,1.294400215E0,2.034563065E0,3.510602934E0
7.969993816E0,-2.844508171E0,1.450890064E0,2.150279522E0,3.849676705E0
7.978019815E0,-3.002035141E0,1.616646290E0,2.227323055E0,4.072680715E0
7.986045814E0,-2.989640474E0,1.950554371E0,2.174583912E0,4.179883696E0
7.994071813E0,-3.053575039E0,2.435908794E0,2.073838234E0,4.422530632E0
8.002097812E0,-3.114771366E0,2.744569778E0,1.923191547E0,4.575273725E0
8.010123811E0,-3.087462902E0,2.856748104E0,1.925867558E0,4.626273095E0
8.018149810E0,-2.925426960E0,2.712839603E0,1.907742023E0,4.422341149E0
8.026175809E0,-2.554564714E0,2.477185249E0,1.821341753E0,3.997440859E0
8.034232325E0,-2.100129843E0,2.105955601E0,1.709003448E0,3.430202200E0
8.042258324E0,-1.579668641E0,1.648401737E0,1.531154394E0,2.749002561E0
8.050284323E0,-9.220625758E-1,8.152275085E-1,1.333637834E0,1.814768623E0
8.058310322E0,-3.855336905E-1,-1.597404480E-1,1.234962702E0,1.303566689E0
8.066336321E0,7.768940926E-2,-9.169826508E-1,8.836371899E-1,1.275816409E0
8.074362320E0,4.633051157E-1,-1.529979706E0,1.056458950E-1,1.602076960E0
8.082388319E0,8.833644390E-1,-1.811553955E0,-1.146875381E0,2.318918628E0
8.090444836E0,1.332203150E0,-1.873188972E0,-2.890326500E0,3.692910700E0
8.098470835E0,1.811740279E0,-1.932847023E0,-4.553689957E0,5.268243794E0
8.106496834E0,2.319418430E0,-1.945952415E0,-5.842445374E0,6.580319187E0
8.114522833E0,2.668314934E0,-1.964607239E0,-6.435051918E0,7.238057707E0
8.122548832E0,2.900240898E0,-2.066177368E0,-6.136277199E0,7.094672934E0
8.130574831E0,2.659834623E0,-2.056449890E0,-5.046074867E0,6.063544998E0
8.138631348E0,1.911921024E0,-1.567589760E0,-3.678942442E0,4.432538454E0
8.146657347E0,1.055590987E0,-2.229194641E-1,-2.359348774E0,2.594319189E0
8.154683346E0,1.329391003E-1,1.485617638E0,-1.170040131E0,1.895712657E0
8.162709345E0,-3.813038468E-1,8.497037888E-1,2.881767750E-1,9.749025622E-1
8.170765860E0,-5.281241536E-1,-1.052822113E0,2.344397306E0,2.623651702E0
8.178791859E0,-7.268370390E-1,-1.384163857E0,3.326321363E0,3.675406845E0
8.186817858E0,-9.327453971E-1,-3.376979828E-1,2.838878155E0,3.007205194E0
8.194843858E0,-1.208366752E0,2.290506363E-1,1.708030224E0,2.104752158E0
8.202869857E0,-1.334186673E0,2.331438065E-1,7.956151962E-1,1.570800323E0
8.210926373E0,-1.501657128E0,9.204101562E-2,6.913900375E-3,1.504491104E0
8.218952372E0,-1.938965797E0,-2.542190552E-1,-4.875366688E-1,2.015417499E0
8.226978371E0,-2.379682779E0,-5.992832184E-1,-6.139869690E-1,2.529626554E0
8.235004370E0,-2.562173128E0,-8.828420639E-1,-4.073126316E-1,2.740446100E0
8.243030369E0,-2.627054214E0,-1.120219231E0,-2.639453411E-1,2.868095555E0
8.251086886E0,-2.604402542E0,-1.417636871E0,-4.315024614E-1,2.996464796E0
8.259112885E0,-2.420063019E0,-1.947573662E0,-1.853784204E0,3.617494168E0
8.267138884E0,-1.761043787E0,-2.761272430E0,-4.019697666E0,5.184965765E0
8.275164883E0,-1.347728014E0,-2.372400284E0,-2.691484451E0,3.832589524E0
8.283190882E0,-1.404036880E0,-1.628243446E0,-3.260681629E-1,2.174584265E0
8.291247398E0,-1.680579066E0,-9.933977127E-1,1.775935411E0,2.639153576E0
8.299273397E0,-1.851412773E0,-6.960964203E-1,3.076292515E0,3.657301617E0
8.307299396E0,-1.900776148E0,-5.685968399E-1,3.612993002E0,4.121889223E0
8.315325395E0,-1.962818146E0,-2.239875793E-1,3.394309044E0,3.927360360E0
8.323351394E0,-2.011692047E0,3.461380005E-1,2.792705774E0,3.459179375E0
8.331407911E0,-1.943565011E0,7.306737900E-1,2.008227110E0,2.888651115E0
8.339433910E0,-1.940810323E0,9.037122726E-1,1.388461709E0,2.551718342E0
8.347459909E0,-2.321089029E0,9.564552307E-1,7.583129406E-1,2.622460563E0
8.355485908E0,-2.794597626E0,8.229923248E-1,2.791795135E-1,2.926607841E0
8.363511907E0,-3.145367861E0,6.500387192E-1,-6.303471327E-2,3.212454310E0
8.371568423E0,-3.115437508E0,9.712409973E-2,4.765939713E-1,3.153177091E0
8.379594422E0,-2.741751194E0,-3.704299927E-1,2.059182167E0,3.448862013E0
8.387620422E0,-2.217980385E0,1.636152267E-1,2.487902641E0,3.337044573E0
8.395646421E0,-1.731076360E0,2.774934769E-1,2.981637001E0,3.458870798E0
8.403672420E0,-1.447880864E0,3.965654373E-1,3.057021618E0,3.405731098E0
8.411698419E0,-1.286109447E0,8.856334686E-1,3.191416502E0,3.552965443E0
8.419754934E0,-1.078200102E0,1.322023392E0,3.205953598E0,3.631583646E0
8.427780933E0,-7.325541377E-1,1.355996132E0,3.065295696E0,3.430947213E0
8.435806932E0,-3.655074239E-1,1.274483681E0,2.854849815E0,3.147708976E0
8.443832931E0,4.890209436E-2,1.043322563E0,2.623208284E0,2.823496961E0
8.451858930E0,3.229565918E-1,8.346300125E-1,2.452717781E0,2.610887346E0
8.459884930E0,3.592149019E-1,6.339435577E-1,1.971515417E0,2.101854614E0
8.467941446E0,2.535222173E-1,3.455286026E-1,1.407331705E0,1.471137675E0
8.475967445E0,1.061570644E-1,4.564285278E-3,9.718549252E-1,9.776462298E-1
8.483993444E0,2.480924129E-2,-2.076940536E-1,9.550137520E-1,9.776520776E-1
8.492019443E0,2.705395222E-2,-4.300622940E-1,1.265119791E0,1.336493015E0
8.500045442E0,9.199470282E-2,-4.851694107E-1,1.420870066E0,1.504235396E0
8.508071441E0,1.660078764E-1,-3.691139221E-1,1.270753860E0,1.333648783E0
8.516127958E0,2.206937671E-1,-2.193355560E-1,1.068273544E0,1.112664455E0
8.524153957E0,2.849017382E-1,-6.906414032E-2,7.236459255E-1,7.807703128E-1
8.532179956E0,4.477232695E-1,2.369022369E-2,6.732978821E-1,8.089174190E-1
8.540205955E0,5.670724511E-1,6.463623047E-2,4.429993629E-1,7.224939049E-1
8.548262471E0,5.004020333E-1,3.743171692E-1,-4.514765739E-2,6.265411791E-1
8.556288470E0,3.996444345E-1,4.471721649E-1,-2.342627048E-1,6.438615021E-1
8.564314469E0,3.010111451E-1,4.680881500E-1,-5.295336246E-1,7.681927397E-1
8.572364340E0,3.394397795E-1,2.597112656E-1,-5.794720650E-1,7.200397069E-1
8.580396985E0,4.690369070E-1,2.148571014E-1,-3.191990852E-1,6.066689791E-1
8.588422984E0,7.688962817E-1,2.665824890E-1,-1.241254807E-2,8.138929824E-1
8.596448983E0,9.337775707E-1,4.866971970E-1,1.173334122E-1,1.059519628E0
8.604505499E0,1.067541361E0,6.043853760E-1,1.866841316E-2,1.226896389E0
8.612531498E0,1.135597944E0,5.454530716E-1,-1.549084187E-1,1.269290496E0
8.620557497E0,1.171167850E0,5.328617096E-1,-2.418963909E-1,1.309232447E0
8.628583496E0,1.244390488E0,5.191326141E-1,-2.245113850E-1,1.366898577E0
8.636629494E0,1.229342699E0,4.831771851E-1,-2.194340229E-1,1.338990274E0
8.644666011E0,1.159730673E0,5.327758789E-1,-1.697342396E-1,1.287491780E0
8.652692010E0,9.900087714E-1,5.261659622E-1,-5.273127556E-2,1.122385217E0
8.660718009E0,8.685318828E-1,5.763912201E-1,1.416358948E-1,1.051967298E0
8.668774526E0,6.900738478E-1,5.844974518E-1,1.888613701E-1,9.238548607E-1
8.676800525E0,5.271535516E-1,5.569801331E-1,1.234493256E-1,7.767608844E-1
8.684826524E0,3.454102874E-1,5.007114410E-1,1.430511475E-4,6.082928853E-1
8.692852523E0,2.108910680E-1,4.562921524E-1,-4.448461533E-2,5.046349690E-1
8.700909039E0,-3.727823496E-2,5.317430496E-1,-8.653259277E-2,5.400261357E-1
8.708935038E0,-1.935456991E-1,4.182157516E-1,6.545400620E-2,4.654552390E-1
8.716958609E0,-3.744570017E-1,2.759037018E-1,-2.934360504E-2,4.660492956E-1
8.724987037E0,-4.553396106E-1,1.931915283E-1,-4.993724823E-2,4.971426921E-1
8.733013036E0,-4.733877778E-1,5.058479309E-2,-6.024885178E-2,4.798799158E-1
8.741039035E0,-3.783454895E-1,-1.633605957E-1,-9.986400604E-2,4.240339767E-1
8.749095550E0,-2.673106194E-1,-3.499689102E-1,-7.703351974E-2,4.470652844E-1
8.757110570E0,-1.913393736E-1,-5.448322296E-1,-4.634714127E-2,5.793107731E-1
8.765147549E0,2.654933929E-2,-7.476339340E-1,1.268639565E-1,7.587857604E-1
8.773173548E0,2.539851665E-1,-8.872718811E-1,2.565450668E-1,9.579014705E-1
8.781199547E0,4.676913619E-1,-9.757919312E-1,3.875956535E-1,1.149406583E0
8.789225546E0,7.801460028E-1,-1.113649368E0,5.561218262E-1,1.469052139E0
8.797282062E0,1.032019496E0,-1.169008255E0,7.118291855E-1,1.714160240E0
8.805308061E0,1.147987485E0,-1.161142349E0,8.422250748E-1,1.837245192E0
8.813334060E0,1.274096966E0,-1.169380188E0,8.748130798E-1,1.938058572E0
8.821360059E0,1.332683444E0,-1.138784409E0,8.689465523E-1,1.956513021E0
8.829386058E0,1.369787216E0,-1.227628708E0,7.236890793E-1,1.976642392E0
8.837442574E0,1.362025142E0,-1.314078331E0,4.434466362E-1,1.943851657E0
8.845468574E0,1.351937175E0,-1.483990669E0,7.489776611E-2,2.008873343E0
8.853494573E0,1.312045217E0,-1.712872505E0,-2.512016296E-1,2.172210194E0
8.861520572E0,1.282855630E0,-1.940510750E0,-4.498012066E-1,2.369308267E0
8.869546571E0,1.286217451E0,-2.006361961E0,-4.583094120E-1,2.426909798E0
8.877603087E0,1.305078983E0,-2.085474968E0,-4.066412449E-1,2.493550500E0
8.885629086E0,1.321353197E0,-2.180339813E0,-2.832932472E-1,2.565172711E0
8.893655085E0,1.359634638E0,-2.216042519E0,-2.235693932E-1,2.609489235E0
8.901681084E0,1.570950270E0,-2.266082764E0,-4.752447605E-1,2.798012406E0
8.909707083E0,2.033623695E0,-2.350119591E0,-8.550393581E-1,3.223318124E0
8.917763600E0,2.441138744E0,-2.367230415E0,-1.163373470E0,3.593936009E0
8.925789599E0,2.794968367E0,-2.408826828E0,-1.654161453E0,4.043580712E0
8.933815598E0,3.024191856E0,-2.491832733E0,-2.216163635E0,4.501816079E0
8.941841597E0,2.679477930E0,-2.345245361E0,-2.335737467E0,4.258573387E0
8.949867596E0,1.815053344E0,-2.155027390E0,-1.840320468E0,3.365314415E0
8.957924112E0,1.120997071E0,-2.172126770E0,-1.159208775E0,2.705278936E0
8.965950111E0,7.150074244E-1,-2.178322792E0,-8.530378342E-2,2.294254245E0
8.973976111E0,4.044259489E-1,-2.100677490E0,8.911976814E-1,2.317464039E0
8.982002110E0,-3.193530142E-1,-1.447220802E0,1.461772680E0,2.081637280E0
8.990028109E0,-1.275896907E0,-1.178426743E0,1.904677153E0,2.577672896E0
8.998084624E0,-2.103819132E0,-8.502979279E-1,1.772637367E0,2.879462579E0
9.006110623E0,-3.303008080E0,-2.351894379E-1,1.182640553E0,3.516221711E0
9.014136622E0,-4.282246590E0,5.219240189E-1,7.471063137E-1,4.378151251E0
9.022162621E0,-5.129438877E0,1.038274765E0,5.724620819E-1,5.264681426E0
9.030219138E0,-5.036297798E0,9.132833481E-1,1.632771492E-1,5.121039095E0
9.038245137E0,-4.771510601E0,6.681938171E-1,1.941537857E-1,4.821980100E0
9.046271136E0,-4.259750366E0,5.051040649E-1,7.208514214E-1,4.349739081E0
9.054297135E0,-3.860460997E0,1.072420120E0,1.217695594E0,4.187603919E0
9.062353651E0,-3.357507229E0,1.270941734E0,1.561653137E0,3.914959541E0
9.070379650E0,-3.024737835E0,1.359544754E0,1.138203621E0,3.506124412E0
9.078405649E0,-3.153507948E0,1.659357071E0,5.322725773E-1,3.602969936E0
9.086431648E0,-2.770809650E0,1.118461609E0,9.498680830E-1,3.135377468E0
9.094457647E0,-2.761295557E0,1.165566444E0,1.037331104E0,3.171648485E0
9.102514164E0,-2.215981483E0,7.257061005E-1,1.344407320E0,2.691589553E0
9.110540163E0,-1.470753193E0,5.222311020E-1,1.230544448E0,1.987480797E0
9.118566162E0,-8.158696890E-1,5.324916840E-1,8.608915806E-1,1.300125016E0
9.126592161E0,-3.522943854E-1,5.645446777E-1,4.795084000E-1,8.202135897E-1
9.134648677E0,-8.822607994E-2,6.616992950E-1,6.698989868E-1,9.457242996E-1
9.142674677E0,2.030095160E-1,5.284461975E-1,5.117260218E-1,7.631066561E-1
9.150700676E0,2.359152436E-1,4.765214920E-1,1.881786585E-1,5.640389544E-1
9.158726675E0,-4.448068142E-2,8.557329178E-1,1.249768734E-1,8.659541423E-1
9.166783190E0,-3.225215673E-1,1.015104294E0,1.028461456E-1,1.070062717E0
9.174809189E0,-6.897455454E-1,1.174933434E0,8.610737324E-2,1.365149065E0
9.182835188E0,-1.192703485E0,1.375725746E0,4.718816280E-2,1.821370269E0
9.190861187E0,-1.645431399E0,1.691426277E0,-4.141092300E-3,2.359742463E0
9.198887186E0,-1.913292527E0,1.963888645E0,-1.083709002E-1,2.743955385E0
9.206943703E0,-2.259624481E0,2.374867916E0,-1.070286036E-1,3.279840779E0
9.214969702E0,-2.611375570E0,2.428906918E0,-2.297649384E-1,3.573746369E0
9.222995701E0,-2.814104319E0,2.647793293E0,-2.275437713E-1,3.870628968E0
9.231021700E0,-2.779981613E0,2.727494240E0,-3.372269869E-1,3.909123257E0
9.239047699E0,-2.737216711E0,2.680209160E0,-3.265498877E-1,3.844803154E0
9.247073698E0,-2.577156067E0,2.546733379E0,-3.492874503E-1,3.639998080E0
9.255130215E0,-2.464190960E0,2.585658550E0,-5.943626165E-1,3.620930011E0
9.263156214E0,-2.729168415E0,2.758473396E0,-8.574574590E-1,3.974011702E0
9.271182213E0,-2.902743816E0,2.586402416E0,-9.180958867E-1,3.994783997E0
9.279208212E0,-2.917383909E0,2.440382957E0,-9.045403004E-1,3.909576832E0
9.287234211E0,-2.735021114E0,2.494968891E0,-8.175729513E-1,3.791257812E0
9.295260210E0,-2.401862621E0,2.532135487E0,-7.206643820E-1,3.563707525E0
9.303316726E0,-1.792850494E0,2.362596989E0,-6.436887383E-1,3.034882637E0
9.311342725E0,-8.725705743E-1,1.952841759E0,-7.081721425E-1,2.253104109E0
9.319368724E0,2.571976557E-2,1.528019905E0,-8.891022205E-1,1.768052345E0
9.327394723E0,9.708989263E-1,9.519052505E-1,-1.112694025E0,1.756945168E0
9.335420722E0,1.747644424E0,3.468675613E-1,-1.027871132E0,2.056963102E0
9.343446721E0,2.263794422E0,-2.727098465E-1,-7.974354625E-1,2.415582572E0
9.351472721E0,2.692589521E0,-7.896280289E-1,-9.926967621E-1,2.976406830E0
9.359529237E0,3.261252403E0,-1.196789742E0,-1.608413458E0,3.828193670E0
9.367555236E0,3.861351252E0,-1.826756477E0,-2.776615143E0,5.094768333E0
9.375581235E0,4.219572544E0,-2.674365044E0,-4.052412033E0,6.432656071E0
9.383607234E0,4.343057632E0,-3.863654137E0,-4.851937294E0,7.571741437E0
9.391633233E0,4.213733196E0,-4.745645523E0,-5.095346451E0,8.138750170E0
9.399689749E0,3.864943504E0,-4.939813614E0,-4.426065922E0,7.676562146E0
9.407715749E0,2.861430883E0,-4.485092163E0,-2.627591133E0,5.933639151E0
9.415741748E0,1.880879164E0,-4.021185875E0,-8.294289112E-1,4.516148203E0
9.423767747E0,1.542735696E0,-3.589114189E0,7.374450564E-2,3.907328031E0
9.431793746E0,1.395838499E0,-3.219988823E0,4.587776661E-1,3.539374250E0
9.439819745E0,1.019269943E0,-2.669535637E0,4.649392962E-1,2.895082086E0
9.447876260E0,-1.846476346E-1,-1.856206894E0,6.324305534E-1,1.969661694E0
9.455902259E0,-1.897082806E0,-1.131856918E0,1.423807502E0,2.628164960E0
9.463928258E0,-3.247166395E0,-7.357664108E-1,2.522358179E0,4.177048311E0
9.471954257E0,-3.329901218E0,-8.405628204E-1,3.266995907E0,4.740047493E0
9.479980258E0,-3.546150208E0,-8.652296066E-1,2.646448135E0,4.508601923E0
9.488036773E0,-4.328907967E0,-9.562158585E-1,-3.170418441E-1,4.444581924E0
9.496062772E0,-5.646580219E0,-1.613113403E0,-4.153858662E0,7.193090074E0
9.504088771E0,-5.153355598E0,-2.845196724E0,-4.887528896E0,7.651153968E0
9.512114770E0,-3.278136253E0,-3.202564240E0,-2.198921680E0,5.083094683E0
9.520171287E0,-2.110892773E0,-2.571609497E0,4.666025043E-1,3.359577593E0
9.528197286E0,-1.635464549E0,-1.629308701E0,2.680538654E0,3.537609166E0
9.536223285E0,-1.627491832E0,-8.340606689E-1,3.578152418E0,4.018402865E0
9.544249284E0,-1.810344219E0,-1.959676743E-1,3.427783012E0,3.881423180E0
9.552305800E0,-1.891812682E0,3.542852402E-1,2.885417938E0,3.468444887E0
9.560331799E0,-1.957728267E0,4.527778625E-1,2.439853430E0,3.160789857E0
9.568357798E0,-2.019423246E0,4.996051788E-1,2.118142128E0,2.968872119E0
9.576383797E0,-2.074981451E0,6.263704300E-1,2.007375717E0,2.954224976E0
9.584440313E0,-2.128974199E0,8.115739822E-1,1.922877550E0,2.981382488E0
9.592466312E0,-2.183553934E0,9.379367828E-1,1.911831021E0,3.050037876E0
9.600492312E0,-2.101370811E0,9.218387604E-1,1.992791533E0,3.039204515E0
9.608518311E0,-1.825733781E0,1.045831680E0,2.005674839E0,2.906853849E0
9.616544310E0,-1.459725142E0,1.286120415E0,1.928996325E0,2.739695244E0
9.624600826E0,-1.127164125E0,1.453682899E0,1.791279554E0,2.567562147E0
9.632626825E0,-9.181443453E-1,1.452852249E0,1.417308092E0,2.227673882E0
9.640651916E0,-8.197027445E-1,1.466405869E0,9.906848669E-1,1.950311582E0
9.648678823E0,-6.792337298E-1,1.367865562E0,7.627495527E-1,1.707103259E0
9.656704822E0,-6.590709090E-1,1.363461494E0,8.219797611E-1,1.723093856E0
9.664761338E0,-3.416442871E-1,1.199411392E0,1.171494722E0,1.711054760E0
9.672787337E0,1.447516680E-2,1.136498451E0,1.316353321E0,1.739144711E0
9.680813336E0,4.048862457E-1,8.632230759E-1,1.471570492E0,1.753455635E0
9.688839335E0,7.289856672E-1,2.645254135E-1,1.582127333E0,1.761965009E0
9.696889800E0,8.606961966E-1,-6.116113663E-1,1.504860401E0,1.838333820E0
9.704921851E0,7.720006704E-1,-9.917554855E-1,1.365694761E0,1.855986573E0
9.712947850E0,5.283752680E-1,-8.378934860E-1,1.224322438E0,1.574868677E0
9.720966031E0,2.953168154E-1,-5.269632339E-1,9.644830227E-1,1.138037685E0
9.728999848E0,-1.106220484E-2,-1.006689072E-1,2.044219971E-1,2.281336322E-1
9.737049377E0,7.760292292E-2,2.108039856E-1,2.121818066E-1,3.090010567E-1
9.745082364E0,1.771874428E-1,3.617353439E-1,3.657431602E-1,5.440734401E-1
9.753108363E0,2.170603871E-1,6.581573486E-1,4.279353619E-1,8.145029043E-1
9.761134362E0,1.178623438E-1,8.655500412E-1,3.296065331E-1,9.336535077E-1
9.769179070E0,-1.537251472E-2,1.228557587E0,2.089054585E-1,1.246287105E0
9.777208108E0,-9.047937393E-2,1.318961143E0,9.148931503E-2,1.325222740E0
9.785242876E0,-1.975259781E-1,1.374190331E0,3.421044350E-2,1.388735371E0
9.793268875E0,-1.150925756E-1,1.138067245E0,4.204583168E-2,1.144644577E0
9.801294874E0,8.081430197E-2,7.228860855E-1,9.255385399E-2,7.332540214E-1
9.809320873E0,2.948652506E-1,1.384305954E-1,1.753094196E-1,3.699215300E-1
9.817377389E0,4.286974370E-1,-9.793376923E-2,1.025125980E-1,4.515322230E-1
9.825403388E0,4.487740397E-1,-5.353069305E-2,-8.716201782E-2,4.602834900E-1
9.833429387E0,3.427079320E-1,2.660646439E-1,-4.463067055E-1,6.224377854E-1
9.841455386E0,2.190002799E-1,5.532140732E-1,-7.212126255E-1,9.349623439E-1
9.849511762E0,1.220260859E-1,7.500400543E-1,-9.528170824E-1,1.218733294E0
9.857537902E0,8.522284031E-2,8.439149857E-1,-1.024457932E0,1.330026123E0
9.865563901E0,1.584271789E-1,5.905866623E-1,-8.036384583E-1,1.009815106E0
9.873589900E0,3.208624721E-1,2.846088409E-1,-5.017421246E-1,6.600758122E-1
9.881615899E0,4.451129436E-1,8.414459229E-2,-2.465074062E-1,5.157244869E-1
9.889672415E0,4.953138232E-1,-7.001018524E-2,-1.542973518E-2,5.004750606E-1
9.897698414E0,4.782777429E-1,-1.803941727E-1,8.249258995E-2,5.177805368E-1
9.905724413E0,5.276728868E-1,-2.829151154E-1,-3.875684738E-2,5.999847758E-1
9.913750412E0,5.971919894E-1,-3.078527451E-1,-2.767987251E-1,7.266561216E-1
9.921776411E0,7.104072571E-1,-2.669429779E-1,-5.844373703E-1,9.578643245E-1
9.929832928E0,8.179548979E-1,-2.380323410E-1,-9.408636093E-1,1.269225725E0
9.937858927E0,7.170482874E-1,-2.036714554E-1,-1.351075649E0,1.543063744E0
9.945884926E0,7.546354532E-1,-3.736639023E-1,-1.673136473E0,1.873095042E0
9.953910925E0,7.754259109E-1,-5.193929672E-1,-1.719608307E0,1.956554913E0
9.961936924E0,8.363403082E-1,-6.643152237E-1,-1.590316057E0,1.915694388E0
9.969993439E0,9.766991138E-1,-7.703180313E-1,-1.341744661E0,1.829647443E0
9.978019440E0,1.225184679E0,-7.947845459E-1,-1.040144682E0,1.792947554E0
9.986045439E0,1.467454433E0,-7.888393402E-1,-7.963986397E-1,1.846602505E0
9.994071438E0,1.727260828E0,-9.060153961E-1,-5.429170132E-1,2.024611753E0
1.000209744E1,1.888168097E0,-1.000469208E0,-3.383557796E-1,2.163469905E0
1.001015395E1,1.846620083E0,-1.105992317E0,-2.172489166E-1,2.163428258E0
1.001817995E1,1.696233392E0,-1.201233864E0,-2.351236343E-1,2.091758504E0
1.002620595E1,1.558066487E0,-1.262161255E0,-4.582810402E-1,2.056852869E0
1.003423195E1,1.355135679E0,-1.422513962E0,-8.515865803E-1,2.141293624E0
1.004228847E1,1.063060880E0,-1.614451408E0,-1.318839788E0,2.340062002E0
1.005031447E1,7.053973079E-1,-1.871316910E0,-1.878055811E0,2.743447825E0
1.005834046E1,3.329440951E-1,-2.203915596E0,-2.403041840E0,3.277606719E0
1.006636646E1,1.439646482E-1,-2.563759804E0,-2.410158634E0,3.521711912E0
1.007439246E1,1.037800312E-1,-2.861842155E0,-1.977352262E0,3.480062181E0
1.008244898E1,2.194920182E-1,-3.091935158E0,-1.392520308E0,3.398139576E0
1.009047498E1,3.758069873E-1,-3.244066238E0,-8.150351048E-1,3.365929125E0
1.009850098E1,7.119762897E-1,-3.524544716E0,-4.117631912E-1,3.619236745E0
1.010652698E1,1.098191500E0,-3.821394920E0,-2.642753124E-1,3.984836904E0
1.011455298E1,1.522797346E0,-4.019334793E0,-2.501511574E-1,4.305408173E0
1.012260949E1,1.801107883E0,-4.117879868E0,-2.458062172E-1,4.501260369E0
1.013063549E1,2.094679832E0,-4.045188904E0,-2.217686176E-1,4.560747547E0
1.013866149E1,2.225349903E0,-3.833725929E0,-1.937859058E-1,4.437024867E0
1.014668749E1,2.101323128E0,-3.353424072E0,-3.192427158E-1,3.970255383E0
1.015471349E1,1.880386353E0,-2.723880768E0,-6.124475002E-1,3.366076531E0
1.016277000E1,1.567154408E0,-2.282046318E0,-7.382587194E-1,2.865088877E0
1.017079600E1,1.235883355E0,-1.806564331E0,-8.323134184E-1,2.341757455E0
1.017882200E1,9.220076799E-1,-1.160365105E0,-7.293969393E-1,1.651836927E0
1.018684800E1,6.744273901E-1,-5.912942886E-1,-2.565724850E-1,9.329044326E-1
1.019487400E1,2.346283793E-1,-1.291656494E-2,4.383606911E-1,4.973704952E-1
1.020290000E1,-2.082712650E-1,4.197282791E-1,9.296084642E-1,1.041019042E0
1.021095651E1,-1.111649990E0,1.042505264E0,1.010633588E0,1.828650643E0
1.021898251E1,-2.201960087E0,1.678143978E0,1.092594028E0,2.976332835E0
1.022700851E1,-3.240586758E0,1.990970612E0,1.245631456E0,4.002119968E0
1.023503451E1,-3.946139336E0,1.791555882E0,1.395172358E0,4.552822645E0
1.024309103E1,-4.396007061E0,1.506361008E0,1.291157007E0,4.822975014E0
1.025111703E1,-4.768311501E0,1.399295807E0,1.145493269E0,5.099703732E0
1.025914303E1,-5.216627598E0,1.328465462E0,7.822905183E-1,5.439669331E0
1.026716903E1,-4.979572773E0,1.221484184E0,3.563180566E-1,5.139565271E0
1.027519502E1,-4.317990303E0,1.102774620E0,-1.578373313E-1,4.459379412E0
1.028325154E1,-3.089384317E0,1.404650688E0,-3.817551136E-1,3.415124593E0
1.029127754E1,-2.039250612E0,2.102829456E0,-1.189000905E-1,2.931650050E0
1.029930354E1,-1.576253891E0,2.673358440E0,7.070379257E-1,3.182974129E0
1.030732954E1,-1.728190660E0,2.656684399E0,1.826464057E0,3.657948319E0
1.031535554E1,-1.969393730E0,2.316190720E0,3.028985977E0,4.291620575E0
1.032341205E1,-2.224835396E0,2.104443550E0,3.994457722E0,5.033315774E0
1.033143805E1,-1.908275247E0,1.616896629E0,4.281183720E0,4.958266145E0
1.033946405E1,-1.546307445E0,1.263025284E0,3.697993040E0,4.202553046E0
1.034749005E1,-1.454533100E0,1.078798294E0,2.342017651E0,2.960493029E0
1.035554657E1,-1.344560027E0,1.066792488E0,8.808305264E-1,1.929183842E0
1.036357257E1,-1.199615955E0,1.011608124E0,-3.020120412E-2,1.569503600E0
1.037159857E1,-1.091000676E0,9.253215790E-1,-4.519419670E-1,1.500251326E0
1.037962456E1,-9.508178234E-1,8.247575760E-1,-2.156116366E-1,1.277015258E0
1.038768108E1,-8.221058249E-1,7.768898010E-1,5.194796324E-1,1.244698694E0
1.039570708E1,-5.602609515E-1,7.696657181E-1,1.329824448E0,1.635454283E0
1.040373308E1,-3.090125918E-1,8.317193985E-1,1.831496239E0,2.035098133E0
1.041175908E1,-5.844926834E-1,9.439039230E-1,1.888648510E0,2.190794264E0
1.041978508E1,-5.512855053E-1,9.316120148E-1,1.713581920E0,2.026864487E0
1.042784159E1,-3.972145319E-1,9.888467789E-1,1.510718822E0,1.848747873E0
1.043586759E1,-4.669619203E-1,1.005483627E0,1.448680282E0,1.824205394E0
1.044389359E1,-3.774690628E-1,9.192819595E-1,1.275156856E0,1.616659278E0
1.045191959E1,-7.094101906E-1,9.576501846E-1,1.339234710E0,1.792737098E0
1.045997611E1,-1.376142740E0,1.316930771E0,1.290934682E0,2.300997142E0
1.046800210E1,-2.143727303E0,1.851102829E0,1.061874270E0,3.024851302E0
1.047602810E1,-2.439577818E0,1.844298840E0,9.291232228E-1,3.196286611E0
1.048405410E1,-2.545126915E0,1.799214363E0,9.045744538E-1,3.245473506E0
1.049211062E1,-2.463926077E0,2.012629986E0,6.970004439E-1,3.256903559E0
1.050013662E1,-2.213808537E0,2.149309158E0,4.392074347E-1,3.116629793E0
1.050816262E1,-1.782244563E0,2.053560257E0,1.161034554E-1,2.721577745E0
1.051618862E1,-1.477377534E0,1.866600037E0,-2.893464565E-1,2.398032828E0
1.052424513E1,-1.084935665E0,1.607597351E0,-6.052378416E-1,2.031690795E0
1.053227113E1,-5.336638689E-1,1.171242714E0,-8.122702837E-1,1.521968999E0
1.054029713E1,-8.877879381E-2,1.151401520E0,-8.372396827E-1,1.426386140E0
1.054832313E1,3.810207844E-1,6.120519638E-1,-7.461469173E-1,1.037554657E0
1.055637965E1,6.952236891E-1,9.915924072E-2,-7.873499393E-1,1.055030075E0
1.056440564E1,1.089993715E0,-2.914581299E-1,-8.785236478E-1,1.429978301E0
1.057243164E1,1.403628588E0,-6.388006210E-1,-1.112359285E0,1.901468544E0
1.058045764E1,2.022909403E0,-1.026586533E0,-1.376424670E0,2.653410491E0
1.058851416E1,2.709693432E0,-1.474028587E0,-1.580895424E0,3.466183652E0
1.059654016E1,3.088631630E0,-1.890071869E0,-1.755597353E0,4.024194215E0
1.060456616E1,3.197701216E0,-2.183782578E0,-1.928210378E0,4.325759433E0
1.061259216E1,3.004554749E0,-2.309756279E0,-1.936391473E0,4.255811937E0
1.062064867E1,2.262427807E0,-2.031256676E0,-1.646860600E0,3.457850936E0
1.062867467E1,1.597715378E0,-1.791332245E0,-1.151648998E0,2.662303712E0
1.063670067E1,1.583268166E0,-1.951560020E0,-8.584567308E-1,2.655611522E0
1.064472667E1,1.689356565E0,-1.987589836E0,-8.413159847E-1,2.740848691E0
1.065275267E1,1.632039309E0,-1.676729202E0,-9.101542830E-1,2.510648112E0
1.066077867E1,1.481142879E0,-1.323023796E0,-9.319173694E-1,2.193774413E0
1.066883518E1,1.401311874E0,-1.098828316E0,-7.882255912E-1,1.947408077E0
1.067686118E1,1.245659947E0,-9.226980209E-1,-5.608638525E-1,1.648517092E0
1.068488718E1,8.716176748E-1,-8.688240051E-1,-2.337114215E-1,1.252674559E0
1.069291318E1,-3.814295530E-1,-5.613040924E-1,3.693536520E-1,7.726402192E-1
1.070093918E1,-1.686779976E0,-6.583280563E-1,1.258313060E0,2.204988497E0
1.070896518E1,-2.548678637E0,-8.172559738E-1,1.932204843E0,3.301073412E0
1.071699118E1,-2.872940063E0,-1.095515251E0,2.126127481E0,3.738229038E0
1.072504770E1,-3.052212477E0,-1.569982529E0,1.661681056E0,3.813401379E0
1.073307369E1,-3.205658197E0,-2.217183113E0,-3.225392401E-1,3.911032728E0
1.074109969E1,-3.035186291E0,-3.199935913E0,-3.986451864E0,5.945060482E0
1.074912569E1,-2.163869381E0,-3.547925949E0,-5.361954689E0,6.783853427E0
1.075715169E1,-1.788312078E0,-2.587576866E0,-3.546771765E0,4.740591110E0
1.076516549E1,-1.915824413E0,-1.425189972E0,-3.282787502E-1,2.410252389E0
1.077323421E1,-2.124211788E0,-1.260965347E0,2.095514774E0,3.239365910E0
1.078123638E1,-2.463592052E0,-1.324534416E0,3.097211838E0,4.173295866E0
1.078928620E1,-2.394920111E0,-3.952693939E-1,2.484131336E0,3.473152563E0
1.079731220E1,-1.999039412E0,-8.691215515E-2,1.763915300E0,2.667416255E0
1.080536726E1,-1.804519176E0,7.948112488E-2,1.031654000E0,2.080124199E0
1.081338565E1,-1.775967240E0,3.936338425E-1,6.763873696E-1,1.940749112E0
1.082141730E1,-1.689615488E0,5.611591339E-1,8.774304390E-1,1.984838595E0
1.082944672E1,-1.366979361E0,7.854681015E-1,1.293788195E0,2.039480474E0
1.083747272E1,-1.064189434E0,8.675565720E-1,1.551620960E0,2.071878655E0
1.084552923E1,-7.826439738E-1,9.963998795E-1,1.607871771E0,2.047094512E0
1.085355523E1,-6.410340071E-1,1.073682785E0,1.362311125E0,1.849219003E0
1.086157038E1,-5.776146054E-1,1.087490082E0,1.073627710E0,1.633692067E0
1.086960723E1,-5.181025267E-1,1.136425972E0,9.626417160E-1,1.576887216E0
1.087763323E1,-4.816533327E-1,1.204057693E0,9.960618019E-1,1.635201509E0
1.088566818E1,-4.165288210E-1,1.218791008E0,1.196709037E0,1.758141149E0
1.089369538E1,-2.035331428E-1,1.166500092E0,1.426593661E0,1.854000453E0
1.090172261E1,-7.170446217E-2,1.281706810E0,1.654885411E0,2.094411517E0
1.090976774E1,-1.490739733E-1,1.298740387E0,1.821545362E0,2.242092137E0
1.091779374E1,-2.915212512E-1,1.176792145E0,1.820031404E0,2.186855895E0
1.092583807E1,-6.045717001E-1,9.136056900E-1,1.744682789E0,2.060121436E0
1.093385772E1,-8.638017178E-1,6.026859283E-1,1.656042695E0,1.962615893E0
1.094189715E1,-1.028983712E0,3.994836807E-1,1.567255259E0,1.916946462E0
1.094992826E1,-1.075159550E0,3.686361313E-1,1.619438648E0,1.978494930E0
1.095795425E1,-1.409124017E0,4.262399673E-1,1.500552773E0,2.102134541E0
1.096599530E1,-1.656468272E0,2.704877853E-1,1.398946524E0,2.184971889E0
1.097401130E1,-1.674997449E0,7.139873505E-2,1.638355255E0,2.344125034E0
1.098204772E1,-1.565969110E0,9.170818329E-2,2.011989594E0,2.551229462E0
1.099008877E1,-1.387919068E0,1.851940155E-1,1.927486181E0,2.382397772E0
1.099811477E1,-1.172972679E0,3.495826721E-1,1.672669291E0,2.072654218E0
1.100613865E1,-1.152150035E0,5.396881104E-1,1.189196110E0,1.741522422E0
1.101419728E1,-1.090347409E0,4.997110367E-1,8.787388802E-1,1.486859312E0
1.102222328E1,-8.716122508E-1,4.647750854E-1,5.424208641E-1,1.126918005E0
1.103027980E1,-7.472876310E-1,5.887193680E-1,1.802153587E-1,9.682493859E-1
1.103830580E1,-6.249547005E-1,6.512956619E-1,-2.363228798E-2,9.029467880E-1
1.104631122E1,-3.868834674E-1,6.094875336E-1,-6.908416748E-2,7.252078965E-1
1.105435779E1,-1.647596359E-1,6.764793396E-1,-1.403737068E-1,7.102639031E-1
1.106238379E1,6.926116347E-2,7.394199371E-1,-1.769013405E-1,7.634350244E-1
1.107044031E1,2.254405916E-1,7.528438568E-1,-2.459738255E-1,8.234685518E-1
1.107846631E1,3.424632251E-1,7.544717789E-1,-2.661430836E-1,8.702533347E-1
1.108649231E1,4.205382466E-1,6.795845032E-1,-3.023562431E-1,8.544628790E-1
1.109450168E1,3.628120124E-1,6.046237946E-1,-2.689266205E-1,7.546681499E-1
1.110253892E1,4.057121277E-1,4.335718155E-1,-1.904628277E-1,6.235887575E-1
1.111060082E1,5.379523039E-1,3.980884552E-1,-1.742739677E-1,6.915479125E-1
1.111862682E1,7.305712700E-1,3.804655075E-1,-1.258969307E-1,8.332697163E-1
1.112664349E1,9.165849686E-1,3.185853958E-1,-2.126390934E-1,9.933982299E-1
1.113465730E1,1.039557576E0,3.514127731E-1,-3.288431168E-1,1.145560425E0
1.114270176E1,1.053741932E0,3.495540619E-1,-5.035061836E-1,1.219048226E0
1.115076133E1,9.885265827E-1,2.608547211E-1,-7.298095226E-1,1.256125762E0
1.115878733E1,9.004106522E-1,2.245340347E-1,-8.985099792E-1,1.291694646E0
1.116679603E1,7.726905942E-1,1.717901230E-1,-1.041018605E0,1.307777633E0
1.117483303E1,6.642322540E-1,1.008214951E-1,-1.100193858E0,1.289106662E0
1.118286238E1,5.375523567E-1,1.074390411E-1,-1.154885411E0,1.278384135E0
1.119092185E1,4.812049866E-1,8.402156830E-2,-1.097080588E0,1.200917849E0
1.119894785E1,4.423413277E-1,5.912590027E-2,-1.027981997E0,1.120673328E0
1.120695611E1,7.190972567E-1,-9.905719757E-2,-8.405232430E-1,1.110582061E0
1.121500142E1,9.305578470E-1,-2.876367569E-1,-7.222435474E-1,1.212562803E0
1.122301826E1,1.008823991E0,-4.635696411E-1,-5.113644600E-1,1.222340488E0
1.123108236E1,9.686740637E-1,-6.722583771E-1,-2.561089993E-1,1.206587165E0
1.123910836E1,9.276089668E-1,-8.446826935E-1,-1.278259754E-1,1.261065711E0
1.124713434E1,9.093382359E-1,-9.381456375E-1,-5.063486099E-2,1.307507994E0
1.125517518E1,9.826573133E-1,-1.039263725E0,-6.128668785E-2,1.431586723E0
1.126319345E1,1.054083705E0,-1.133870125E0,-6.882071495E-2,1.549674226E0
1.127124287E1,1.182422042E0,-1.094575882E0,-4.265689850E-2,1.611843000E0
1.127926887E1,1.319913149E0,-9.808406830E-1,-5.541801453E-3,1.644460361E0
1.128727964E1,1.441794276E0,-8.593606949E-1,5.285978317E-2,1.679305123E0
1.129531707E1,1.609522820E0,-8.041009903E-1,9.713912010E-2,1.801826328E0
1.130336199E1,1.699795246E0,-8.127317429E-1,2.584345341E-1,1.901742667E0
1.131140338E1,1.738647461E0,-1.028896332E0,3.037459850E-1,2.042984160E0
1.131942938E1,1.710396767E0,-1.226994514E0,3.778557777E-1,2.138632186E0
1.132745184E1,1.596177578E0,-1.318463326E0,3.801617622E-1,2.104911249E0
1.133547207E1,1.399765015E0,-1.353519440E0,3.272771835E-1,1.974453678E0
1.134353790E1,1.148931265E0,-1.502311707E0,2.263331413E-1,1.904786131E0
1.135156390E1,1.035952926E0,-1.880058289E0,9.083747864E-5,2.146582782E0
1.135958990E1,8.632476330E-1,-1.981564522E0,-3.462736607E-1,2.188995175E0
1.136762315E1,6.727518439E-1,-2.115520477E0,-8.957624435E-1,2.393827957E0
1.137565495E1,6.855585575E-1,-2.266799927E0,-1.497543335E0,2.801965111E0
1.138368511E1,9.422042966E-1,-2.451341629E0,-1.754251719E0,3.158199457E0
1.139172441E1,1.314429164E0,-2.642167091E0,-1.676215291E0,3.393886956E0
1.139975041E1,1.668445826E0,-2.767587662E0,-1.347880721E0,3.501433332E0
1.140777492E1,2.039242029E0,-2.838248253E0,-9.230618477E-1,3.614720511E0
1.141579426E1,2.362286806E0,-2.852046967E0,-5.967447758E-1,3.751089866E0
1.142385203E1,2.586399555E0,-2.864708900E0,-4.520933628E-1,3.885924363E0
1.143188492E1,2.676195860E0,-2.752009392E0,-4.870047569E-1,3.869464253E0
1.143991092E1,2.664573669E0,-2.585907936E0,-6.747016907E-1,3.773870038E0
1.144796744E1,2.550803661E0,-2.249254227E0,-1.074371696E0,3.566513485E0
1.145598626E1,2.154090881E0,-1.719549179E0,-1.550668120E0,3.162519332E0
1.146401222E1,1.626489162E0,-1.494038582E0,-1.882091641E0,2.901704193E0
1.147204543E1,1.241791964E0,-1.146541595E0,-2.072156429E0,2.674030138E0
1.148010195E1,1.042220831E0,-8.177986145E-1,-1.914638042E0,2.328273538E0
1.148812795E1,7.342277765E-1,-5.494680405E-1,-1.708958626E0,1.939470325E0
1.149615395E1,4.275828898E-1,-2.175998688E-1,-1.542104959E0,1.615012240E0
1.150417995E1,-1.369394511E-1,1.530084610E-1,-1.238879204E0,1.255780906E0
1.151223646E1,-8.281487226E-1,4.756546021E-1,-8.905799389E-1,1.305836986E0
1.152026246E1,-1.500696421E0,6.744890213E-1,-5.170408487E-1,1.724632258E0
1.152826445E1,-2.132125378E0,8.444013596E-1,-1.460788250E-1,2.297892797E0
1.153631446E1,-2.850224018E0,7.385807037E-1,4.435608387E-1,2.977587048E0
1.154434572E1,-3.455256224E0,5.147647858E-1,9.308662415E-1,3.615285648E0
1.155239698E1,-3.975371122E0,5.362987518E-1,1.233346701E0,4.196705374E0
1.156042298E1,-4.145097733E0,5.853233337E-1,1.550227642E0,4.464039019E0
1.156844111E1,-4.140528679E0,8.661136627E-1,1.753817439E0,4.579301937E0
1.157647497E1,-4.127536297E0,1.031710625E0,1.650405407E0,4.563422039E0
1.158449657E1,-3.916687727E0,9.464921951E-1,1.443090320E0,4.280046717E0
1.159255749E1,-3.718883991E0,8.789920807E-1,1.073645115E0,3.969312163E0
1.160058349E1,-3.436523676E0,8.249082565E-1,8.330195546E-1,3.630990249E0
1.160859411E1,-3.258222818E0,8.802032471E-1,7.152200937E-1,3.449972967E0
1.161662953E1,-3.135852814E0,8.367166519E-1,9.605097175E-1,3.384707748E0
1.162466657E1,-2.993459225E0,7.112989426E-1,1.404201627E0,3.382089077E0
1.163271800E1,-2.674848318E0,5.755949020E-1,2.018719912E0,3.400198979E0
1.164074400E1,-2.299886942E0,4.319610596E-1,2.359108925E0,3.322870028E0
1.164876668E1,-1.973819017E0,3.905239105E-1,2.696536064E0,3.364487655E0
1.165678388E1,-1.502047896E0,4.105596542E-1,2.593369007E0,3.024941308E0
1.166484141E1,-6.070843339E-1,3.874168396E-1,1.950792789E0,2.079479671E0
1.167287851E1,-1.473705322E-1,6.008720398E-1,8.778145909E-1,1.073929112E0
1.168093503E1,-2.171555161E-1,8.189611435E-1,3.700768948E-2,8.480704227E-1
1.168896103E1,-2.332792580E-1,7.665739059E-1,-5.028169751E-1,9.459808011E-1
1.169696630E1,-3.155314922E-1,1.018475533E0,-7.084506750E-1,1.280138622E0
1.170500976E1,-4.434435964E-1,1.260930061E0,-6.906455159E-1,1.504519216E0
1.171303902E1,1.704614162E-1,1.161284447E0,-2.864953876E-2,1.174078131E0
1.172109554E1,4.564956129E-1,1.442261696E0,3.658558428E-1,1.556392477E0
1.172908141E1,3.938043118E-1,1.842634201E0,6.814677715E-1,2.003691832E0
1.173712711E1,3.024852574E-1,1.984109402E0,8.365254402E-1,2.174387790E0
1.174517354E1,4.206019938E-1,1.840401173E0,1.093254805E0,2.181556458E0
1.175323006E1,2.259591520E-1,1.701205254E0,1.269474268E0,2.134647927E0
1.176125606E1,-2.083318532E-1,1.674249649E0,1.164350152E0,2.049933005E0
1.176924453E1,-6.632667780E-1,1.695129395E0,8.529831171E-1,2.010215581E0
1.177728799E1,-1.141388535E0,1.697094917E0,4.406548142E-1,2.092146174E0
1.178533405E1,-1.545009136E0,1.737761497E0,4.436396062E-1,2.367210247E0
1.179339057E1,-1.627439499E0,1.704752922E0,6.742028594E-1,2.451385597E0
1.180141657E1,-1.501609445E0,1.868538380E0,6.477963924E-1,2.483124396E0
1.180940526E1,-1.936763406E0,2.250349522E0,5.424689651E-1,3.018177933E0
1.181745761E1,-2.151561499E0,2.069642067E0,5.551291704E-1,3.036577607E0
1.182549456E1,-2.086558104E0,1.802743912E0,4.700852633E-1,2.797246948E0
1.183355108E1,-1.725497723E0,1.655343056E0,1.143931895E-1,2.393864830E0
1.184157708E1,-1.241650105E0,1.541102409E0,-2.757791877E-1,1.998185622E0
1.184957491E1,-7.502664328E-1,1.256515503E0,-7.904194593E-1,1.663278044E0
1.185760922E1,-2.109524906E-1,8.734989166E-1,-1.387584329E0,1.653145964E0
1.186564722E1,3.113694191E-1,3.994255066E-1,-1.872280002E0,1.939568007E0
1.187371159E1,9.840536118E-1,-1.774873734E-1,-2.042616367E0,2.274235015E0
1.188173759E1,1.555335164E0,-6.584377289E-1,-1.893536210E0,2.537338585E0
1.188973949E1,2.485361338E0,-1.256575584E0,-1.531369686E0,3.178222191E0
1.189777457E1,3.458413601E0,-1.631995201E0,-1.274929166E0,4.031064047E0
1.190581559E1,4.208969593E0,-1.854210854E0,-1.220737219E0,4.758542033E0
1.191387211E1,4.558163643E0,-2.160287857E0,-1.387055874E0,5.231407403E0
1.192189810E1,4.274299145E0,-2.078630447E0,-1.372955322E0,4.947256213E0
1.192991588E1,4.194822788E0,-2.006700516E0,-1.481895685E0,4.880512269E0
1.193793134E1,3.918841124E0,-1.920577049E0,-1.660678864E0,4.669452456E0
1.194600662E1,3.480759621E0,-2.081251144E0,-1.901543498E0,4.479192063E0
1.195403262E1,2.958939075E0,-2.232562065E0,-2.017940521E0,4.220395452E0
1.196205862E1,2.392199039E0,-2.113564491E0,-2.098777771E0,3.820293082E0
1.197008153E1,1.456031561E0,-1.855923653E0,-2.019479752E0,3.105282431E0
1.197812115E1,5.677862763E-1,-1.658295631E0,-1.592671275E0,2.368317430E0
1.198616713E1,-5.405688286E-2,-1.496621132E0,-9.306777120E-1,1.763223741E0
1.199419313E1,-5.695784092E-1,-1.231909752E0,-2.308325917E-1,1.376700725E0
1.200221913E1,-1.361716509E0,-5.361509323E-1,-5.510952324E-2,1.464502213E0
1.201027564E1,-2.333422184E0,-1.658077240E-1,2.768667638E-1,2.355632929E0
1.201830164E1,-3.002193928E0,-6.043844223E-1,9.425880313E-1,3.204203662E0
1.202630134E1,-3.238088131E0,-1.090714455E0,1.385743856E0,3.687161347E0
1.203435364E1,-2.925815105E0,-1.500642776E0,1.330742359E0,3.547280367E0
1.204241016E1,-2.733576536E0,-1.657374382E0,5.572113991E-1,3.244967652E0
1.205040288E1,-2.582939148E0,-1.785992622E0,-1.340419173E0,3.414391285E0
1.205842211E1,-1.914943695E0,-2.211688042E0,-3.890983820E0,4.868092895E0
1.206646388E1,-1.066704869E0,-2.035760880E0,-4.652481556E0,5.189197073E0
1.207451416E1,-1.004529357E0,-1.267183304E0,-2.729148388E0,3.172236384E0
1.208257067E1,-1.225440264E0,-1.127313614E0,-3.588066101E-1,1.703315005E0
1.209058603E1,-1.490704536E0,-1.265037537E0,1.892927766E0,2.721340756E0
1.209859918E1,-1.713902593E0,-1.262034416E0,3.066134930E0,3.732475904E0
1.210664041E1,-1.849037886E0,-4.938468933E-1,2.831518650E0,3.417648859E0
1.211467467E1,-1.607764721E0,3.977890015E-1,1.781737804E0,2.432639121E0
1.212273118E1,-1.283246398E0,4.315185547E-1,1.085404396E0,1.735232631E0
1.213072957E1,-1.128218532E0,3.641138077E-1,5.235608220E-1,1.295982968E0
1.213877965E1,-1.140207529E0,4.086980820E-1,2.726259828E-1,1.241544304E0
1.214680134E1,-1.016288400E0,5.531654358E-1,3.192213178E-1,1.200306778E0
1.215486570E1,-8.350504637E-1,8.836326599E-1,6.015074849E-1,1.356439165E0
1.216289170E1,-7.536200285E-1,1.153238297E0,7.848821878E-1,1.585541474E0
1.217088607E1,-6.533204317E-1,1.326128960E0,8.019731045E-1,1.681846148E0
1.217893118E1,-5.618835092E-1,1.342372894E0,7.341507673E-1,1.629924972E0
1.218696969E1,-5.610711575E-1,1.319337845E0,6.640001535E-1,1.579983986E0
1.219502621E1,-6.164118052E-1,1.429633141E0,5.792479515E-1,1.661126913E0
1.220305221E1,-7.150105238E-1,1.496308327E0,6.494243145E-1,1.780991465E0
1.221104138E1,-8.256590366E-1,1.387976646E0,7.974425554E-1,1.801140373E0
1.221906453E1,-7.414678931E-1,1.224463463E0,1.167574286E0,1.847245280E0
1.222713021E1,-6.463986635E-1,1.065193176E0,1.533795953E0,1.976106718E0
1.223518672E1,-7.003902197E-1,9.865264893E-1,1.841189027E0,2.203124601E0
1.224321272E1,-7.014333010E-1,9.117488861E-1,2.060018301E0,2.359442754E0
1.225123872E1,-7.380866408E-1,7.856636047E-1,2.316546917E0,2.555079022E0
1.225924649E1,-7.600703239E-1,5.791549683E-1,2.505878448E0,2.681893766E0
1.226729653E1,-7.619807720E-1,4.047660828E-1,2.448407650E0,2.595987346E0
1.227534724E1,-6.912592649E-1,1.351795197E-1,2.331487894E0,2.435559212E0
1.228337323E1,-7.160896659E-1,7.499694824E-3,2.146485806E0,2.262795167E0
1.229142975E1,-7.301111221E-1,-7.636260986E-2,1.885198355E0,2.023083373E0
1.229945575E1,-7.254415154E-1,-9.663581848E-2,1.524816751E0,1.691351530E0
1.230746276E1,-7.957276702E-1,-3.413295746E-2,1.059099913E0,1.325156673E0
1.231550775E1,-7.443658113E-1,-5.575466156E-2,5.228953362E-1,9.113772962E-1
1.232353375E1,-7.672734261E-1,-5.811214447E-2,1.243650913E-1,7.794563539E-1
1.233154115E1,-9.477027059E-1,-1.313209534E-1,-1.742277145E-1,9.724921121E-1
1.233960580E1,-9.357486963E-1,-2.411298752E-1,-3.746995926E-1,1.036421258E0
1.234761341E1,-7.560668588E-1,-3.379278183E-1,-2.328698635E-1,8.602677947E-1
1.235566826E1,-4.263194203E-1,-4.385862350E-1,1.154897213E-1,6.224500056E-1
1.236372478E1,8.812600374E-2,-4.291219711E-1,4.166810513E-1,6.045948702E-1
1.237172034E1,5.132114291E-1,-2.928524017E-1,3.664712906E-1,6.953054775E-1
1.237976657E1,6.680741310E-1,-4.167461395E-2,6.511211395E-3,6.694043724E-1
1.238779499E1,8.707519174E-1,8.014583588E-2,-2.295215130E-1,9.040533068E-1
1.239582877E1,1.046152353E0,9.752273560E-2,-4.898798466E-1,1.159278954E0
1.240388529E1,1.170898438E0,1.493806839E-1,-6.188418865E-1,1.332772681E0
1.241189457E1,1.220526576E0,2.688798904E-1,-4.661636353E-1,1.333900316E0
1.241991118E1,1.322678328E0,3.647165298E-1,-3.080089092E-1,1.406188321E0
1.242794188E1,1.516229391E0,5.343647003E-1,-9.842157364E-2,1.610647077E0
1.243601980E1,1.566230059E0,7.677793503E-1,4.616737366E-2,1.744904913E0
1.244404580E1,1.494189620E0,8.276081085E-1,-1.001832485E-1,1.711015630E0
1.245204049E1,1.300187349E0,7.957372665E-1,-5.335164070E-1,1.615030866E0
1.246007691E1,1.264071107E0,6.341142654E-1,-7.565355301E-1,1.603846212E0
1.246812380E1,1.219730377E0,5.559673309E-1,-8.136854172E-1,1.568096242E0
1.247618031E1,1.078390718E0,5.378189087E-1,-8.498280048E-1,1.474579044E0
1.248420631E1,8.862360120E-1,4.452772141E-1,-9.158589840E-1,1.349993980E0
1.249219722E1,6.929582953E-1,2.906217575E-1,-1.073480606E0,1.310348357E0
1.250024380E1,4.671992064E-1,1.197233200E-1,-1.355363846E0,1.438617366E0
1.250831483E1,3.096696138E-1,-6.739711761E-2,-1.529236794E0,1.561730710E0
1.251634083E1,2.942769527E-1,-2.320489883E-1,-1.623075247E0,1.665778771E0
1.252436683E1,2.860498428E-1,-2.589464188E-1,-1.646036863E0,1.690655233E0
1.253236407E1,4.588555098E-1,-3.924751282E-1,-1.553582430E0,1.666794370E0
1.254039026E1,6.561752558E-1,-5.150775909E-1,-1.479699373E0,1.698640964E0
1.254842857E1,7.911392450E-1,-5.240859985E-1,-1.348879337E0,1.649255258E0
1.255650134E1,1.070980310E0,-6.514301300E-1,-1.187278986E0,1.726554786E0
1.256452734E1,1.307008386E0,-6.624517441E-1,-9.252984524E-1,1.733000421E0
1.257251561E1,1.560126901E0,-7.412099838E-1,-6.682627201E-1,1.852015996E0
1.258054345E1,1.795125246E0,-8.273868561E-1,-4.135210514E-1,2.019416579E0
1.258858895E1,1.975375175E0,-9.214096069E-1,-2.606065273E-1,2.195226300E0
1.259666185E1,2.073967457E0,-9.855566025E-1,-1.813797951E-1,2.303380442E0
1.260468785E1,2.178524017E0,-1.046250343E0,-1.251022816E-1,2.419970507E0
1.261268691E1,2.377143621E0,-1.151474953E0,-4.976987839E-3,2.641350248E0
1.262074934E1,2.559050560E0,-1.205318451E0,1.263804436E-1,2.831519796E0
1.262877657E1,2.616109371E0,-1.222358704E0,2.013022900E-1,2.894600431E0
1.263682236E1,2.652185917E0,-1.310579300E0,3.513050079E-1,2.979114541E0
1.264455355E1,2.593140125E0,-1.458241463E0,5.208435059E-1,3.020285058E0
1.265257955E1,2.414817572E0,-1.771319389E0,6.519100666E-1,3.064947474E0
1.266060555E1,2.059967995E0,-2.020425797E0,6.611754894E-1,2.960192826E0
1.266863155E1,1.568901420E0,-2.243760109E0,3.045926094E-1,2.754757294E0
1.267668806E1,1.080307841E0,-2.503290176E0,-6.748812199E-1,2.808734840E0
1.268471407E1,4.637368917E-1,-2.709100723E0,-2.150777578E0,3.490003270E0
1.269274006E1,5.240151286E-1,-3.253441811E0,-3.111762762E0,4.532388218E0
1.270076606E1,1.077870369E0,-3.738040924E0,-2.862933397E0,4.830232098E0
1.270882258E1,1.600746393E0,-3.944483757E0,-1.798011065E0,4.621058852E0
1.271684858E1,1.976137877E0,-3.992274284E0,-7.339622974E-1,4.514651207E0
1.272487458E1,2.361713409E0,-4.022222519E0,-1.541292667E-1,4.666874763E0
1.273290058E1,2.627239227E0,-4.028687477E0,8.629083633E-2,4.810421484E0
1.274095709E1,2.736504555E0,-3.939791679E0,-8.963298798E-2,4.797754655E0
1.274898309E1,2.635096550E0,-3.761844635E0,-5.604264736E-1,4.627017043E0
1.275700909E1,2.291286469E0,-3.467963219E0,-1.108231306E0,4.301736765E0
1.276503509E1,2.025338650E0,-3.198819160E0,-1.456811428E0,4.056690795E0
1.277309161E1,1.672078848E0,-2.861954689E0,-1.744893789E0,3.745835908E0
1.278111760E1,1.177757502E0,-2.332691193E0,-1.837938666E0,3.194773775E0
1.278914360E1,8.099354506E-1,-1.671272278E0,-1.668563247E0,2.496647706E0
1.279716960E1,4.885041118E-1,-9.818305969E-1,-1.608077526E0,1.946417457E0
1.280522612E1,3.625908792E-1,-5.506839752E-1,-1.430294037E0,1.574949529E0
1.281325212E1,-1.214014888E-1,-1.846475601E-1,-1.314512253E0,1.332957428E0
1.282127812E1,-7.381018400E-1,1.582841873E-1,-1.040727496E0,1.285675671E0
1.282930412E1,-1.368946075E0,6.021060944E-1,-4.051687717E-1,1.549421453E0
1.283733012E1,-1.944233418E0,9.508342743E-1,7.534658909E-2,2.165596109E0
1.284538663E1,-2.674503326E0,1.203556061E0,1.931700706E-1,2.939188648E0
1.285341263E1,-3.304472208E0,1.355463028E0,4.257560968E-1,3.596954941E0
1.286143863E1,-3.993912935E0,1.630997658E0,6.930630207E-1,4.369419898E0
1.286949515E1,-4.731623650E0,1.556258202E0,7.471444607E-1,5.036707932E0
1.287752115E1,-5.066657543E0,1.368659973E0,4.414767027E-1,5.266796983E0
1.288554714E1,-5.213723183E0,1.104016304E0,1.919317245E-2,5.329364859E0
1.289357314E1,-5.050837040E0,7.744941711E-1,-5.251333117E-1,5.136785086E0
1.290162966E1,-4.625054359E0,9.048814774E-1,-5.896525383E-1,4.749487176E0
1.290965566E1,-3.765164614E0,1.411897659E0,-3.795639873E-1,4.039057859E0
1.291768166E1,-3.112007380E0,1.820371151E0,1.780561805E-1,3.609715371E0
1.292570766E1,-2.787960529E0,1.806407452E0,1.287724137E0,3.562873173E0
1.293373366E1,-2.815020800E0,1.631146431E0,2.803905249E0,4.294981423E0
1.294179017E1,-2.932753563E0,1.495676041E0,4.323545456E0,5.434255753E0
1.294981617E1,-2.464718580E0,1.280289650E0,4.983729839E0,5.705395900E0
1.295784217E1,-2.012798071E0,7.025699615E-1,4.515732765E0,4.993676304E0
1.296586817E1,-1.616760254E0,3.924903870E-1,3.805927515E0,4.153678691E0
1.297389417E1,-1.022971392E0,2.880191803E-1,2.142504692E0,2.391600274E0
1.298195068E1,-1.449778676E-1,3.103342056E-1,1.916144490E-1,3.924818446E-1
1.298997668E1,8.633097410E-1,9.643554688E-3,-1.102828383E0,1.400581005E0
1.299800268E1,1.125573277E0,3.728389740E-2,-1.576139331E0,1.937142350E0
1.300602868E1,1.072163820E0,7.935619354E-2,-1.483376980E0,1.832004347E0
1.301408520E1,9.142561555E-1,1.641969681E-1,-9.165002704E-1,1.304912912E0
1.302211120E1,4.361392558E-1,3.540000916E-1,-1.006630361E-1,5.706720267E-1
1.303013720E1,2.324190736E-2,5.719900131E-1,6.454439163E-1,8.627343800E-1
1.303816319E1,-3.003342152E-1,7.583084106E-1,1.345404387E0,1.573322996E0
1.304621971E1,-4.998290539E-1,1.011330605E0,1.585607052E0,1.945962075E0
1.305424571E1,-7.772585154E-1,1.393596649E0,1.268161654E0,2.038253272E0
1.306227171E1,-1.112058759E0,1.601173401E0,9.042605162E-1,2.148980694E0
1.307029771E1,-1.432574868E0,1.768200874E0,7.280644178E-1,2.389326868E0
1.307835422E1,-1.775283694E0,2.067093372E0,5.244328976E-1,2.774803970E0
1.308638022E1,-1.961049795E0,2.380589008E0,4.255658388E-1,3.113523183E0
1.309440622E1,-2.395336866E0,2.943255901E0,4.251529574E-1,3.818527077E0
1.310243222E1,-2.781656504E0,3.168514729E0,4.982503653E-1,4.245627388E0
1.311048874E1,-2.849423409E0,3.173594952E0,7.542109489E-1,4.331253033E0
1.311851474E1,-2.766778231E0,3.023082733E0,1.092535019E0,4.241193671E0
1.312654074E1,-2.430279493E0,2.805527210E0,9.174539447E-1,3.823475263E0
1.313456674E1,-1.927485704E0,2.563916683E0,4.593523145E-1,3.240350976E0
